,frame_id,timestamp,head_quat_w,head_quat_x,head_quat_y,head_quat_z,head_acc_x,head_acc_y,head_acc_z,head_gyro_x,head_gyro_y,head_gyro_z,head_comp_x,head_comp_y,head_comp_z,head_g_x,head_g_y,head_g_z,sternum_quat_w,sternum_quat_x,sternum_quat_y,sternum_quat_z,sternum_acc_x,sternum_acc_y,sternum_acc_z,sternum_gyro_x,sternum_gyro_y,sternum_gyro_z,sternum_comp_x,sternum_comp_y,sternum_comp_z,sternum_g_x,sternum_g_y,sternum_g_z,belt_quat_w,belt_quat_x,belt_quat_y,belt_quat_z,belt_acc_x,belt_acc_y,belt_acc_z,belt_gyro_x,belt_gyro_y,belt_gyro_z,belt_comp_x,belt_comp_y,belt_comp_z,belt_g_x,belt_g_y,belt_g_z,left_elbow_quat_w,left_elbow_quat_x,left_elbow_quat_y,left_elbow_quat_z,left_elbow_acc_x,left_elbow_acc_y,left_elbow_acc_z,left_elbow_gyro_x,left_elbow_gyro_y,left_elbow_gyro_z,left_elbow_comp_x,left_elbow_comp_y,left_elbow_comp_z,left_elbow_g_x,left_elbow_g_y,left_elbow_g_z,right_elbow_quat_w,right_elbow_quat_x,right_elbow_quat_y,right_elbow_quat_z,right_elbow_acc_x,right_elbow_acc_y,right_elbow_acc_z,right_elbow_gyro_x,right_elbow_gyro_y,right_elbow_gyro_z,right_elbow_comp_x,right_elbow_comp_y,right_elbow_comp_z,right_elbow_g_x,right_elbow_g_y,right_elbow_g_z,left_wrist_quat_w,left_wrist_quat_x,left_wrist_quat_y,left_wrist_quat_z,left_wrist_acc_x,left_wrist_acc_y,left_wrist_acc_z,left_wrist_gyro_x,left_wrist_gyro_y,left_wrist_gyro_z,left_wrist_comp_x,left_wrist_comp_y,left_wrist_comp_z,left_wrist_g_x,left_wrist_g_y,left_wrist_g_z,right_wrist_quat_w,right_wrist_quat_x,right_wrist_quat_y,right_wrist_quat_z,right_wrist_acc_x,right_wrist_acc_y,right_wrist_acc_z,right_wrist_gyro_x,right_wrist_gyro_y,right_wrist_gyro_z,right_wrist_comp_x,right_wrist_comp_y,right_wrist_comp_z,right_wrist_g_x,right_wrist_g_y,right_wrist_g_z,left_knee_quat_w,left_knee_quat_x,left_knee_quat_y,left_knee_quat_z,left_knee_acc_x,left_knee_acc_y,left_knee_acc_z,left_knee_gyro_x,left_knee_gyro_y,left_knee_gyro_z,left_knee_comp_x,left_knee_comp_y,left_knee_comp_z,left_knee_g_x,left_knee_g_y,left_knee_g_z,right_knee_quat_w,right_knee_quat_x,right_knee_quat_y,right_knee_quat_z,right_knee_acc_x,right_knee_acc_y,right_knee_acc_z,right_knee_gyro_x,right_knee_gyro_y,right_knee_gyro_z,right_knee_comp_x,right_knee_comp_y,right_knee_comp_z,right_knee_g_x,right_knee_g_y,right_knee_g_z,left_ankle_quat_w,left_ankle_quat_x,left_ankle_quat_y,left_ankle_quat_z,left_ankle_acc_x,left_ankle_acc_y,left_ankle_acc_z,left_ankle_gyro_x,left_ankle_gyro_y,left_ankle_gyro_z,left_ankle_comp_x,left_ankle_comp_y,left_ankle_comp_z,left_ankle_g_x,left_ankle_g_y,left_ankle_g_z,right_ankle_quat_w,right_ankle_quat_x,right_ankle_quat_y,right_ankle_quat_z,right_ankle_acc_x,right_ankle_acc_y,right_ankle_acc_z,right_ankle_gyro_x,right_ankle_gyro_y,right_ankle_gyro_z,right_ankle_comp_x,right_ankle_comp_y,right_ankle_comp_z,right_ankle_g_x,right_ankle_g_y,right_ankle_g_z,left_foot_quat_w,left_foot_quat_x,left_foot_quat_y,left_foot_quat_z,left_foot_acc_x,left_foot_acc_y,left_foot_acc_z,left_foot_gyro_x,left_foot_gyro_y,left_foot_gyro_z,left_foot_comp_x,left_foot_comp_y,left_foot_comp_z,left_foot_g_x,left_foot_g_y,left_foot_g_z,right_foot_quat_w,right_foot_quat_x,right_foot_quat_y,right_foot_quat_z,right_foot_acc_x,right_foot_acc_y,right_foot_acc_z,right_foot_gyro_x,right_foot_gyro_y,right_foot_gyro_z,right_foot_comp_x,right_foot_comp_y,right_foot_comp_z,right_foot_g_x,right_foot_g_y,right_foot_g_z
0,0,0,0.719068,-0.036688,0.063135,-0.691093,0.07412640163098878,-0.17724311926605504,0.7467146788990825,-19.415419733141615,6.137008239425761,-14.222531348532426,0.0150924415783974,0.12819960692852597,-0.18971713122350936,-0.3932540775029321,-1.3736609082366302,9.70538546064554,0.542518,-0.439302,-0.334,-0.63335,0.7255273190621814,-0.16666890927624872,0.29644475025484196,-25.166254418649203,20.829823346201565,2.500617001068965,-0.191323945387099,0.11304981270883019,-0.06312433845857299,9.014071905423632,-0.5256263871730069,3.834882603804174,-0.523086,-0.472533,0.428615,-0.56514,0.8702420998980631,0.1303967380224261,0.31812691131498466,-62.45388935952707,-55.4882122610036,44.13591298717904,-0.20917095911047978,-0.10983618438165099,-0.027487663653109798,9.638316969173808,0.09707806432635213,1.824697742411851,0.756022,0.653517,0.036446,0.004189,-0.17823251783893984,0.9209237512742099,-0.013085219164118247,25.93504918815574,-2.188125819604614,-7.4118966293713555,0.11448456894852459,-0.20027612856943858,-0.021978754414951597,-0.48689787029708287,9.69671614301069,1.404537826395573,-0.179021,-0.112876,0.63294,-0.744713,0.4507537206931702,-0.8172378185524974,0.12162813455657491,-6.508915144245178,-4.069833810373264,7.218752556632754,-0.17192747014142698,0.15735167243833237,-0.03907971369783599,3.872394989149682,-8.851591825971566,1.6999938806953743,0.088019,-0.059331,0.132702,-0.985456,0.14532721712538224,-0.25654087665647296,0.9900468909276249,-33.01291142296583,0.9252122475772533,19.631081047228857,-0.1257320330418432,0.07339633754620159,-0.17537074408560838,0.917975700705958,-2.668204641385278,9.395429985083362,-0.065543,0.001734,0.162234,-0.984571,0.1763118246687054,-0.33192426095820593,1.043108868501529,-4.634999379490307,0.934666051196912,-0.2917501092806152,-0.10530274014918278,0.05245063583004699,-0.2013662988577254,0.17512944460262056,-3.1361536490583077,9.293544531938903,-0.059217,0.723699,0.064201,-0.684566,-1.2874383282364934,-0.35429459734964325,0.23273180428134554,54.72062070286684,81.90741078604489,252.89297105153543,0.21284364361985478,0.037989308357740594,-0.09388298308016038,-9.645550981163094,-1.70311740801756,-0.5466601908784307,0.619326,-0.193465,0.732211,0.20706,-0.9496016309887869,0.029368195718654434,0.0761388379204893,60.295041683253636,-17.417515901520435,-26.940933893287415,0.19046318566400577,-0.0763229676150802,0.11672249721820518,-9.68317784290624,0.623792373317266,-1.4432774984877024,0.338307,-0.663219,-0.469752,-0.474365,3.031760244648318,0.7817386340468909,-0.9224398572884811,128.83867026410817,341.09460969598996,164.48844805182506,-0.2037765201031098,0.10254816800419939,0.09635055696684319,9.290623159271535,-0.030170115497972178,-3.149525531971169,0.555971,-0.324747,0.733492,0.217772,-0.8819354740061163,-0.005577981651376147,-0.19652650356778797,21.221038928716894,5.601349996757954,-0.9507661652400882,0.18931542768261198,-0.06949400741982438,0.13462686358288437,-9.388588136778923,-0.40840804438053896,-2.814909530912029,-0.348598,0.465503,0.091555,-0.808334,-9.278181345565748,-4.714297451580021,1.72880998980632,209.35362172064663,125.34918540442293,-65.65443160312785,0.12292010825556138,0.0321360482199834,-0.20062047946903758,-6.756462629235539,-4.6358231280077735,5.394020454686079,0.623273,-0.460754,0.040186,-0.630572,0.5392710499490316,-0.6074115188583079,0.5706874617737002,-10.893016305247698,-3.5466087518597957,5.60965788478735,-0.08900518794809319,0.21473722098993636,-0.05210628493044799,5.208950497943193,-6.131561337223768,5.613099881334737
1,1,16666666,0.717744,-0.035034,0.068507,-0.692042,0.5082913353720693,-0.33224169215086646,2.4953374108053006,-16.613885298069942,35.591622571511124,-9.265529688178594,0.017732073388975398,0.12923265962732297,-0.18874166621781938,-0.4890384960076259,-1.4235335114932637,9.693837923705876,0.540068,-0.442081,-0.330677,-0.635251,0.8276537206931701,-0.1601044852191641,0.7122859327217125,-36.70911945513428,0.473320434557573,-1.5496789484903377,-0.18971713122350936,0.11310716535012859,-0.05979600484879699,9.013827990322971,-0.5629154933853464,3.8301607157111386,-0.522914,-0.46763,0.434534,-0.564857,1.1691338430173293,-0.2835857288481141,1.046586850152905,-41.176528679548824,-3.1996828069080823,33.11071531859466,-0.20985942585786918,-0.10576179633137858,-0.031389993779486994,9.640639058598397,-0.01803662145943051,1.814897578959598,0.755804,0.653658,0.038495,0.003322,-0.14748542303771658,0.8781344546381243,0.05914923547400612,1.1033448260834262,6.578758699471626,-13.524840641401623,0.11551738659551297,-0.19975971974594436,-0.020888349074856198,-0.5282329146308401,9.695508183781545,1.3979238341646905,-0.178237,-0.111883,0.634999,-0.743297,0.4129402650356779,-0.8671879714576961,0.09285423037716616,-17.152465625492916,-1.8076245478582342,7.663883467669891,-0.170952005135737,0.15781072862052817,-0.036956490710752195,3.852240588529936,-8.869240292212059,1.6531542841140785,0.091724,-0.060358,0.138476,-0.98426,0.26312446483180424,-0.33945402650356776,0.8822632008154944,-38.6375808019856,-6.887067289031521,27.01392871638708,-0.126879791023237,0.0763229676150802,-0.17273087722322178,0.9163796669363783,-2.782757636266899,9.36229716703245,-0.066147,0.003209,0.162456,-0.984491,0.0875480122324159,-0.2764840978593272,0.940548114169215,-2.25590672676859,11.287669634533808,-2.046891723104866,-0.10426992250219438,0.05153228841384679,-0.20027612856943858,0.14885191459157174,-3.1421175508881687,9.291987968347945,-0.053486,0.72485,0.035361,-0.685917,-2.8623241590214064,-1.1786541284403669,3.082265749235474,108.85189701766211,8.305252423539335,168.40639075070916,0.21450781042474276,0.03311151322567339,-0.09216146363397398,-9.717692213312018,-1.236530631720485,-0.5230201183051076,0.623302,-0.185748,0.734808,0.19248,-0.6773603465851171,0.13587828746177372,-0.4490449541284403,115.471221129029,-0.11596665773447863,-26.736273368866684,0.18971713122350936,-0.0700106512951272,0.12142823442637718,-9.687581797592681,0.5034250344491589,-1.4606238905484332,0.253202,-0.711587,-0.451177,-0.475365,7.190095107033639,0.8257199796126401,2.0200910295616716,-568.0669700958069,-383.95483215231025,-36.89166380866296,-0.19057789094660257,0.07178952338261199,0.14443980648831717,8.878099586456633,0.6729367102697498,-4.118568187723728,0.553946,-0.324039,0.736699,0.213112,-1.2358126401630989,0.3809673802242609,-0.4985437308868501,25.940893357666074,31.786552558267815,-4.105128010553322,0.18828237498381498,-0.0700106512951272,0.13680743921126656,-9.361648887899449,-0.4414641250404009,-2.8984029267845637,-0.321716,0.402926,0.129816,-0.846934,4.3829371049949035,6.402129459734964,3.538805402650356,-140.63862146326846,-580.4976905316269,81.39656161590625,0.09870342557092919,0.08475874197392559,-0.20125159357512856,-5.875951862137142,-4.700428920047986,6.294065274639559,0.621363,-0.46426,0.043097,-0.629693,0.41427064220183485,-0.7952252803261978,0.7386889908256881,-33.69301232578611,-4.945427912892188,3.764504601348048,-0.08745572642580199,0.21370440334294796,-0.049466418068061395,5.210334365977484,-6.192305106347376,5.5447157965596565
2,2,33333333,0.715717,-0.028464,0.081083,-0.693083,-0.4156769622833843,-0.2427589194699286,1.621028134556575,-26.712438324589243,94.8019978528026,-9.282374647355441,0.022552515879744196,0.1308394737909126,-0.18564274317323698,-0.7515359643836065,-1.5022926922140658,9.66511305475307,0.537181,-0.447329,-0.332139,-0.633259,1.5972084607543324,-0.282049745158002,1.0557582059123343,-16.94121608642818,-40.5996174756316,1.954301743411725,-0.19235676303408736,0.11408286540762719,-0.05761519416860619,9.058434401781161,-0.587945288914782,3.719568056356883,-0.527157,-0.461404,0.426569,-0.572058,2.110421100917431,-1.4843006116207949,0.36147716615698267,16.929585043187025,87.95893372243712,1.6742399731517785,-0.21083512591536777,-0.10719655257107298,-0.035177383571458797,9.590626210412543,-0.015497070335423713,2.0629466141805564,0.748432,0.661856,0.041797,0.006987,-0.1370566768603466,1.3716966360856269,0.3090928644240571,73.74453837459556,34.7466817110317,6.754141080561171,0.11402527771452019,-0.19975971974594436,-0.014748090678798396,-0.5230267084897283,9.72458292627516,1.181113869279351,-0.190402,-0.107999,0.650429,-0.727342,0.6107680937818551,-1.4391355759429152,0.10555840978593271,-162.46292765447862,42.03751235829191,-53.40298966140449,-0.1751984511099046,0.15672032328043278,-0.03161940434468059,3.970989779529571,-8.878455409802973,1.2807691856896046,0.094657,-0.05907,0.144554,-0.983186,0.27434811416921506,-0.465668501529052,0.5616854230377166,-39.26061510841086,10.549986473302873,23.971064458006307,-0.12383822061995298,0.07787242913737139,-0.17330487373982298,0.8710055460301175,-2.8981661462505124,9.331563766460167,-0.066449,0.002359,0.163111,-0.984365,-0.24428868501529052,-0.15617604485219164,0.781145871559633,-4.407248655925805,-4.847967791940434,-2.63342861798029,-0.10576179633137858,0.05245063583004699,-0.19924307587064155,0.16709255204431084,-3.1532754360564805,9.287897184153913,0.005447,0.76287,0.103618,-0.638172,-4.129656472986748,-3.5022740061162083,-4.964375127420999,-636.3719044592101,378.7764395999179,-69.11595612241072,0.22242694090828538,0.046769433616185,-0.065763970269151,-9.56291431457684,-1.215865576060821,-1.8189119585652513,0.622044,-0.177671,0.740924,0.180348,-1.2284568807339449,0.41988277268093777,-0.8096362895005096,102.52363546622168,36.90088842916457,-2.853788185987604,0.18874166621781938,-0.0700680039364256,0.12458427506044938,-9.671290250885413,0.4533199753834682,-1.5801094528693571,0.309315,-0.667431,-0.373452,-0.565149,2.5841383282364934,-8.588210499490316,-0.6417153924566769,-90.79559047035032,893.4097094965014,285.94650518217605,-0.20762149758818857,0.09910512911182658,0.08998065295378319,9.667017614652211,0.09044046927751674,-1.666340589291614,0.555951,-0.329195,0.732406,0.214781,-1.4270410805300713,0.4794658511722732,-0.2763412844036697,-29.711757790540076,-22.749862213464468,-32.78361371335447,0.1898318365061062,-0.0699530636020202,0.1330200494192948,-9.376133938054034,-0.5044182106742318,-2.840734877529328,-0.360231,0.404679,0.050793,-0.838981,-0.9434035677879715,-4.351254434250764,-0.28192181447502546,583.0998929497725,242.06383954044483,-20.88660346369903,0.10547479807307798,0.03902236105653759,-0.21060548029836557,-6.3023484453701295,-3.696254689742077,6.546312346787342,0.619272,-0.467053,0.042152,-0.629751,0.4974973496432211,-0.8071340468909276,0.5314445463812436,-14.23101112390036,-15.452557143119275,-13.366933473063566,-0.08946424413028899,0.21467986834863798,-0.04728584243967919,5.258624872275386,-6.1955700542221805,5.495259425715227
3,3,50000000,0.715096,-0.032065,0.082787,-0.693365,-0.5009522935779817,-0.06926952089704383,0.6869498470948012,-24.783232132604248,-8.2858291542844,-6.597322532033864,0.020830996433557795,0.13238870026139518,-0.1857000958145354,-0.725310879420249,-1.5760987060952545,9.65535794245037,0.538393,-0.446972,-0.333377,-0.63183,1.9347921508664627,-0.1417913353720693,0.41913180428134555,14.289853889460296,-4.405357895201874,5.853737905513081,-0.191323945387099,0.11408286540762719,-0.05979600484879699,9.062438635787998,-0.5887764849384208,3.7096695571655083,-0.521178,-0.474037,0.414592,-0.576,1.5250300713557594,-0.8750593272171253,0.34917665647298674,123.63844801972131,-11.579820814271017,-38.371785680824416,-0.20813790641168278,-0.11178734944483959,-0.029094477816699396,9.596563571617143,0.16191724150079598,2.02875588053754,0.733737,0.678255,0.037655,0.013487,0.0926834862385321,2.226642201834862,0.4491864424057085,148.01247369504313,11.081118349389147,57.674561911443305,0.10960677381645738,-0.20280105509741977,-0.006886312836554199,-0.36260209395828935,9.77407238663299,0.7563918973095837,-0.204203,-0.10663,0.670539,-0.705201,0.866850764525994,-2.240673190621814,-0.1053217125382263,-211.42085344547863,26.074277932372528,-77.43971508273277,-0.17697755824919797,0.15425274939374997,-0.024101977402035398,4.161827667396621,-8.85039928439569,0.7653254037729611,0.096164,-0.052771,0.146693,-0.983081,0.08837278287461772,-0.2393782874617737,0.8388535168195719,-9.333138708004032,42.80384340927938,17.622577496397756,-0.1207968852684776,0.07844619060216398,-0.1743950440281098,0.7410788927741969,-2.9289886480251632,9.333162785166895,-0.066626,-0.004259,0.168868,-0.983375,-0.08741457696228339,-0.16279765545361874,1.0270580020387359,-36.916014514956025,-46.05646751645756,-8.483499593604535,-0.1077703140358656,0.05480326938232439,-0.19660344406006358,0.3029169899621071,-3.252541146105757,9.250152290102113,-0.09813,0.717154,0.034309,-0.689118,-0.8412243628950051,-1.0611390417940876,2.6066670744138634,884.0613874069263,-396.4228521405931,-125.74114583207192,0.21008907147487138,0.03259510440217919,-0.10013794675881499,-9.63022091471889,-1.8446187151793683,-0.30385346685676523,0.620475,-0.18565,0.736484,0.195287,-1.5310897043832823,0.46816748216106013,-0.5977405708460753,-116.54614724847394,-19.80715097767256,17.645839582880065,0.18994654178870296,-0.07540485525068859,0.11827195874049638,-9.677065195902305,0.5618097341748062,-1.5082702068405034,0.376981,-0.639032,-0.454067,-0.493302,-3.044184709480122,4.763351783893985,-0.6508080530071355,803.1662211575391,-217.71107059932237,-34.45624940467988,-0.20429316397841257,0.10306481187950219,0.09635055696684319,9.543369332400468,-0.3317890818920833,-2.2472467133217484,0.553223,-0.338517,0.728162,0.221653,-0.7819754332313965,-0.6089502548419979,-0.6121931702344546,-82.40691539183995,-3.7191836397531994,-27.207187380684708,0.19034824532960037,-0.070469707477323,0.13192964407919938,-9.375800817460473,-0.5076893584641227,-2.841251581013174,-0.327162,0.415398,0.102227,-0.842591,-0.4587997961264016,1.2147782874617736,1.750326095820591,-413.6820025075393,-87.03704463007163,60.17139739106442,0.09893283613612279,0.06484585790475939,-0.20790826079468058,-6.211018872303613,-4.356383522761239,6.219426594992719,0.616564,-0.469919,0.041615,-0.630312,0.5684380224260958,-0.7279195718654434,0.41036228338430175,-17.723589955679323,-12.068095447281504,-16.748931450382276,-0.08992330031248479,0.21364705070164955,-0.0462527897408822,5.307941004229987,-6.199244165528329,5.44345791494496
4,4,66666666,0.714677,-0.035462,0.088737,-0.692896,0.24926972477064221,-0.18181763506625892,0.45056768603465847,-44.586888067726505,13.46662812941633,-0.6089968404445519,0.021864049132354797,0.1345121583002876,-0.18311781664525578,-0.7621745942647916,-1.7035927828395954,9.630833895261311,0.541413,-0.443839,-0.336616,-0.629737,1.0836150866462793,-0.0006807339449541284,0.40097584097859323,39.65079936689495,1.8314022963561634,3.387899442608558,-0.191323945387099,0.11356622153232437,-0.0603697663135896,9.059536287006104,-0.5556511776205153,3.721848201260856,-0.51316,-0.483678,0.41056,-0.578068,0.8119673802242608,0.7124532110091742,-0.05887869520897043,82.44604840924737,-39.72236179550679,-2.224336752256882,-0.21008907147487138,-0.11287775478493499,-0.023069159755046996,9.619330509617736,0.21332055816270948,1.912870849326371,0.750807,0.659718,0.027412,0.017608,0.31184485219164115,1.5559932721712537,0.22957573904179407,-175.95579725091193,-34.95460809488467,61.66080117950699,0.1065652034131734,-0.20423557628530556,-0.022437810597147397,-0.17588943298071916,9.727661525321246,1.2560908232092267,-0.209534,-0.112885,0.655511,-0.716699,0.620149745158002,-1.8009610601427115,-0.5469163098878695,131.21501271941327,23.91296653758004,-50.08138143569256,-0.1787564303366828,0.14954701218557798,-0.035751380088059996,4.2821922414447835,-8.753482415916583,1.1293693822436075,0.096903,-0.045059,0.143843,-0.983813,-0.194935372069317,-0.2985880733944954,1.3607617737003057,25.743280214125452,50.021507346101394,11.585378504883785,-0.11769796222389517,0.0775280782377724,-0.17651850206700218,0.5962681243037627,-2.862186456264882,9.364211286248999,-0.06787,-0.011931,0.173963,-0.982338,-0.08304077471967379,-0.6598345565749235,1.2280697247706422,-31.900800342616897,-51.86992648897294,-17.09883677586867,-0.11207434770314018,0.055664029105417595,-0.19448022107297977,0.46160266727752897,-3.336984311213734,9.213444452769858,-0.123138,0.729472,0.016804,-0.672626,0.11999255861365953,2.7943527013251783,0.19746136595310906,193.20377494085315,159.7239602106352,-40.491958705926514,0.21502421924823698,0.03311151322567339,-0.09055464947038439,-9.586182689669101,-1.9841408225436727,-0.63591401667542,0.614739,-0.212426,0.722905,0.233194,-0.9943855249745158,-0.2959795107033639,-0.018366360856269113,-330.88329857538895,-41.00332353808077,14.302917327189279,0.19086488920490316,-0.08802972294240319,0.10788501931846238,-9.69099298392837,0.7453748781089047,-1.328597484769271,0.265753,-0.708788,-0.398281,-0.518042,2.257891131498471,-2.835564729867482,-5.556088277268094,-908.355657357166,-329.67349819097024,20.22523828077952,-0.20291576038001657,0.0935959848218598,0.10731125785366978,9.280773179092108,0.3524486193477887,-3.1589759684056404,0.558387,-0.334185,0.726626,0.220316,-0.645770744138634,-0.5865344546381244,-0.456288990825688,32.78773900947942,-35.00050201427465,4.712291386053455,0.19138129802839737,-0.070469707477323,0.13089682643221098,-9.405136350703557,-0.5202678970890277,-2.7402247243489204,-0.330632,0.419406,0.095625,-0.840022,-1.3448774719673802,-0.4278090723751274,-0.004796738022426096,39.03378111731857,48.135272988751204,-4.5572490066910545,0.10145799771591259,0.0649032105460578,-0.20681809050639377,-6.292007993387983,-4.2967043730273975,6.179406682032579,0.615275,-0.471017,0.041026,-0.63079,0.6523566768603466,-0.48949683995922527,0.48024801223241587,-5.610861096157126,-5.349420454238931,-10.05936271333235,-0.0924484618922746,0.2131304068263468,-0.0462527897408822,5.334102704620833,-6.193718787078905,5.424140109099557
5,5,83333333,0.714061,-0.032478,0.098865,-0.692306,0.17254220183486238,-0.4741,0.8805444444444444,-33.154775773040214,64.47534175652814,3.815211366217125,0.027143547805319395,0.13663538128737138,-0.18323252192785258,-0.9439365496052924,-1.7979007238370308,9.597532848474422,0.543644,-0.440921,-0.341361,-0.627306,0.764918858307849,0.22463047910295617,0.2895472986748216,43.92712716663337,-7.29449757714905,-2.790247166507596,-0.1917830015692948,0.11253340388533599,-0.061460171653684996,9.067797380660801,-0.5016097382371681,3.7093851692412287,-0.508548,-0.487567,0.411031,-0.578542,0.6409090723751274,1.1619799184505606,0.023845259938837918,27.97460705148293,-28.0651343831136,9.790416324297942,-0.20963001529267558,-0.11241846355093059,-0.021978754414951597,9.635519179786503,0.19919256311011904,1.831172427372171,0.783027,0.621199,0.023708,0.020459,0.08740479102956167,0.2470433231396534,-0.01628369011213048,-345.71918124360894,-5.626617435523223,20.210742448562712,0.10645049813057658,-0.20073518475163438,-0.041432582301922,-0.11487300204914967,9.552989238003118,2.227846676052191,-0.214624,-0.113751,0.608028,-0.755843,-0.14425402650356778,-0.7508341488277267,0.024851478083588174,408.9491992324202,117.08323788562957,-9.922425800296084,-0.1780677285374848,0.1440954555887182,-0.05910730304959899,4.2472477328637614,-8.537844228944715,2.3026512150039338,0.099232,-0.039823,0.132287,-0.985427,-0.18740295616717634,-0.49405229357798164,1.3675713557594291,84.31177087753188,26.031191506178693,16.537051657742897,-0.11649285160120298,0.07305198664660259,-0.17910078123628176,0.5123876749453959,-2.635182222875258,9.435537797222068,-0.073201,-0.017378,0.16659,-0.983152,-0.009045565749235472,-0.9880739041794087,1.1499322120285422,53.126480229474346,-25.734800438757514,-42.0164275114311,-0.11471397951371819,0.050384530432452994,-0.19694779495966258,0.5744688214680715,-3.188468355244762,9.259576400719627,-0.076888,0.724911,0.047655,-0.682878,-0.825921610601427,1.1369281345565747,-0.8296868501529051,-366.71871468872826,-103.47205250450173,68.91513441521737,0.21278605592674776,0.03902236105653759,-0.09709661140733959,-9.640505633483508,-1.732042069916573,-0.5447764668301431,0.615671,-0.222697,0.716004,0.242268,-0.7134361875637104,-1.1146375127421,-0.1790471967380224,-97.01275550531489,-30.22713332726025,-26.33772392657368,0.19224205775149059,-0.08607855787921459,0.10731125785366978,-9.707488125543346,0.7133196987955196,-1.221453764882334,0.346748,-0.640965,-0.411948,-0.547017,0.23475667686034657,1.2678184505606522,3.0100706422018346,471.71552247763213,578.6958528574994,-18.042727447567188,-0.21422081216644218,0.10214646446330199,0.07052706011862139,9.681711893007277,0.060610696538423464,-1.580152259836567,0.559671,-0.330979,0.726439,0.222501,-0.7447249745158002,-0.2891122324159021,-0.09295249745158002,4.636030703521543,-17.072538013072165,21.68204077067915,0.19189770685189156,-0.07190422866520879,0.12877360344512717,-9.421729223151978,-0.4631490642010916,-2.6930672828456577,-0.331138,0.423901,0.097834,-0.837308,-0.7896032619775738,-0.6364093781855249,0.4429519877675841,-21.243785353183586,29.42745613259616,-12.878257769596487,0.10289251890379839,0.0668543756092464,-0.20521127634280417,-6.328214125606113,-4.361266708630506,6.0966514314556735,0.615315,-0.471667,0.041587,-0.630229,0.598371865443425,-0.43101702344546383,0.5875410805300714,-4.921478277055719,-2.1252723494787626,4.599877066648788,-0.09153011447607438,0.21467986834863798,-0.046769433616185,5.33014605157527,-6.208415333660107,5.4112126287599045
6,6,100000000,0.713291,-0.026568,0.104511,-0.692522,-0.364601121304791,-0.40551080530071354,1.1394301732925585,2.8489180447289923,56.30015075248349,-0.006760901982543714,0.029266770792403196,0.13663538128737138,-0.18426557462664955,-1.1016213527723766,-1.7918348966863156,9.581850452711787,0.544494,-0.437974,-0.342645,-0.627932,0.47857054026503565,0.30132212028542305,0.27396452599388377,17.677581444730315,11.81301463688926,-9.606038505824843,-0.19069259622919937,0.11155770382783739,-0.06312433845857299,9.056325882693967,-0.4574692438746082,3.7429645199168204,-0.513361,-0.48269,0.412813,-0.57711,0.7183318042813455,0.6929968399592252,-0.10954821610601426,-44.299148663011806,22.04054046309251,-4.582974811692429,-0.21014642411616977,-0.11184470208613798,-0.027430311011811395,9.623364329741891,0.18748310361437648,1.8952068654662866,0.786092,0.617283,0.024251,0.020784,-0.07365372069317024,0.12545290519877675,-0.19294617737003059,-34.114480079884345,5.28937447730922,-1.3436433253612936,0.10696690695407078,-0.20073518475163438,-0.036439846835449395,-0.12230937949390691,9.530331355011759,2.322482438979367,-0.213383,-0.117677,0.594461,-0.766313,-0.3836531090723751,-0.12652660550458714,0.599493985728848,122.08338326795675,2.166811789625747,-5.737370177322012,-0.17904342859498337,0.1440954555887182,-0.05859089422610479,4.258037502122784,-8.445096650425542,2.6049105926091283,0.102514,-0.036518,0.120011,-0.98679,-0.10548134556574923,-0.3126317023445464,1.0575416921508665,87.77828012963238,11.607093605319244,21.3695495892148,-0.11534532867161779,0.069092303878927,-0.18219946922905558,0.46563741102951767,-2.3969613101832374,9.501255615913847,-0.081347,-0.020638,0.148736,-0.985309,-0.03323261977573904,-0.5922310907237512,1.1055714576962283,123.70267658855548,-2.4852044363799455,-59.20132254812842,-0.11333681096713079,0.0408585857853208,-0.19717720552485618,0.6363560855159158,-2.8423916752289577,9.367601640602361,-0.043662,0.73199,0.058998,-0.67735,-0.0025168195718654435,-0.30614678899082565,-0.5922585117227319,-222.85869531811625,47.53819367044538,100.5151892111701,0.21691803167012716,0.036038143294551996,-0.08791478260799779,-9.677323558885114,-1.411119007166571,-0.7708773470925332,0.617793,-0.217938,0.721656,0.223713,-0.7656199796126402,-0.38424362895005093,0.0628025484199796,124.7074153780969,33.46978796880314,-50.706421094400774,0.19298811219198697,-0.0792495976839588,0.11253340388533599,-9.703847237460904,0.5258798928511047,-1.3397384559373415,0.358278,-0.650699,-0.447444,-0.498018,0.2911675840978593,0.9755158002038736,-1.635295208970438,298.21788605516997,-303.9118833274006,30.64682491219358,-0.20452257454360617,0.1079999596528678,0.09462903752065678,9.503319273971307,-0.20200686205233417,-2.4253280200107445,0.56024,-0.329921,0.724481,0.228935,-1.024266972477064,-0.2824216106014271,-0.25056809378185524,-29.058414016752394,-26.216772536021566,24.329334967301605,0.19143865066969576,-0.07345369018749999,0.12877360344512717,-9.445330387139672,-0.3723065782335728,-2.6235894666620276,-0.331198,0.425259,0.099806,-0.836362,-0.6679136595310907,-0.7212257900101936,0.48597787971457695,-12.89876965866217,6.457692717360483,-7.681759750877973,0.10392557160259538,0.0663953194270506,-0.20572768516629839,-6.329704955496615,-4.401136502373297,6.0663772272946375,0.615466,-0.473621,0.043916,-0.628456,0.548932619775739,-0.5263998980632008,0.626143119266055,-18.31631479474216,-4.416358684868385,15.190257064508387,-0.09049729682908599,0.21565533335432796,-0.044072214112499994,5.309582758735856,-6.2606760438236,5.371067529125684
7,7,116666666,0.712377,-0.021496,0.106007,-0.693411,-0.36893425076452596,-0.22850265035677877,1.0604399592252802,18.758122550567535,32.4346824161198,-5.1414940703859555,0.029897884898494195,0.1345121583002876,-0.18317516928655417,-1.1891961416868602,-1.7426431434424854,9.580454447008762,0.543855,-0.437311,-0.342708,-0.628913,0.4931962283384302,0.06388899082568807,0.30962130479102956,-1.6671925922716693,3.8182480425313194,-8.40443141787648,-0.1912092401045022,0.11104129500434319,-0.061976580477179195,9.052947780307006,-0.4375312680567355,3.7535054118126836,-0.51736,-0.477492,0.410406,-0.579575,0.6841521916411825,0.04713955147808358,0.3725703363914373,-14.113039113882925,48.04858447434791,-0.6051580232171755,-0.20813790641168278,-0.11178734944483959,-0.029094477816699396,9.595552500947397,0.17999783188343185,2.0320120526412966,0.758466,0.650806,0.026822,0.021472,0.14114057084607542,0.9289985728848114,0.10755178389398572,296.5091540227513,14.19233647272903,2.2871902223827334,0.10759825611197038,-0.20475222016060837,-0.020716291150961,-0.1249690256541775,9.696014638820655,1.48586098488474,-0.209273,-0.12341,0.628421,-0.73896,0.12676167176350664,-0.6669988786952089,-0.1167855249745158,-278.56102190716024,-118.7502585905627,-15.419841253017307,-0.18059289011727456,0.1476534348154964,-0.0389074207221322,4.369503297179126,-8.604381973265061,1.762995120268921,0.104873,-0.034727,0.115923,-0.987095,-0.059043221202854226,-0.07700183486238531,0.7669707441386341,29.938878260529933,7.363538991462313,16.716387447618846,-0.11528797603031939,0.069092303878927,-0.18116665158206718,0.43402731437925546,-2.316514906490554,9.52268234156636,-0.08891,-0.022729,0.139745,-0.985926,-0.013015800203873598,0.023850662589194698,1.0927464831804279,61.47069378308259,-0.8382945500559075,-53.926558494595035,-0.11603379541900719,0.036497199476747795,-0.19809531788924778,0.6834397098471536,-2.6635591596827353,9.41671188716498,-0.009556,0.744075,0.072678,-0.664063,-1.0764960244648316,-1.1147799184505605,-0.3593407747196738,-242.5424884824971,104.61418657331552,89.38164522352648,0.21886896168150716,0.037013843352050595,-0.0820615224702406,-9.68085780579944,-1.0864204893541283,-1.1561931777188297,0.620977,-0.216976,0.723142,0.210651,-1.104473496432212,-0.08427268093781855,-0.11225565749235475,76.5809086436112,8.279182843860882,-53.95938897625602,0.19430792809727596,-0.07339633754620159,0.11402527771452019,-9.707213752461492,0.3451843463873494,-1.3736625972310823,0.331852,-0.663575,-0.415614,-0.526126,2.6024383282364933,0.37463098878695206,0.10539643221202853,-345.2344016531488,80.21265892382742,22.133416921683214,-0.21066283293966398,0.10059723799281939,0.08510309287352459,9.555839853003834,-0.03028068092683241,-2.2183570010497333,0.563141,-0.324747,0.723377,0.232673,-1.0428360856269112,-0.0932466870540265,-0.22769806320081548,6.5620283318538055,-35.72340286439121,33.032277396441245,0.19350452101548118,-0.07540485525068859,0.12613373658274057,-9.47495693771481,-0.2858253806873834,-2.525785992558543,-0.331627,0.425665,0.100669,-0.835882,-0.6604491335372069,-0.4847975535168195,0.6038204892966361,-3.4420439542484207,2.333084141772712,-6.083723164478594,0.10243346272160259,0.0668543756092464,-0.20469486751931,-6.325902233455231,-4.420570111835507,6.056205150018674,0.615496,-0.476102,0.04566,-0.626423,0.46711610601427117,-0.6733367991845055,0.5877827726809378,-18.052123955407335,-9.82811694721755,13.642010510505875,-0.09049729682908599,0.21513892453083375,-0.043039161413702995,5.300106621392809,-6.310609291236699,5.321764761357378
8,8,133333333,0.711661,-0.018646,0.105618,-0.694288,-0.2904441386340469,-0.05992477064220183,0.8464427115188583,16.87893557409746,12.583528279781193,-5.99405526954062,0.0304718814150954,0.1345121583002876,-0.18529839227363798,-1.2207272621910066,-1.6990711523834805,9.58431438186801,0.543336,-0.438254,-0.344666,-0.627634,0.704982364933741,-0.07422273190621814,0.37053047910295617,6.52977080798794,-16.35141333212051,-1.1969088340282896,-0.19218470511019217,0.11052488618084898,-0.061460171653684996,9.070967785973107,-0.4276195158917985,3.710900830723806,-0.518721,-0.474489,0.408885,-0.581894,0.8400722731906217,-0.2859247706422018,0.3400196738022426,-2.246739402046497,28.620445078154393,6.353872764882777,-0.20762149758818857,-0.11127094062134539,-0.030701291980288998,9.578485884642287,0.16087791285138286,2.112540284791052,0.762269,0.646067,0.029384,0.026086,0.20485025484199793,1.483992354740061,0.5880495412844037,-43.88770767032837,32.480461743950755,11.17949520281311,0.10553238576618498,-0.20274370245612136,-0.028578068993205193,-0.10879693750622058,9.6774298681408,1.6036253844354105,-0.211696,-0.12709,0.641292,-0.726483,0.6871322120285422,-1.2039399592252802,-0.5724462793068298,-115.49299352524397,-36.958699870693266,-36.28994353221657,-0.18185535338126518,0.14426774856442198,-0.036726845093749995,4.475080004536021,-8.612851806242606,1.4242691868833601,0.105523,-0.034111,0.121014,-0.986437,-0.0630979612640163,0.031558307849133535,0.9265201834862384,-33.93886851567675,7.671962172581235,6.713575668665908,-0.11494362513072039,0.07259293046440679,-0.18070759539987138,0.4096375661585265,-2.4127117845580632,9.499848362423814,-0.093759,-0.023796,0.151262,-0.983749,0.012829459734964322,0.052867176350662584,1.1018937818552497,-80.15519125697581,-9.011193722920023,-32.76946165581474,-0.11523038833721239,0.04080123314402239,-0.19557039136126655,0.7375450701338343,-2.8757594451248543,9.349980475022205,-0.001226,0.74036,0.071141,-0.668435,-1.0169815494393477,-1.9439810397553516,-0.4988188583078491,-32.806933095616294,-40.85635986362971,44.2456917007261,0.21806555459971236,0.0321360482199834,-0.08516044551482299,-9.70787613676746,-0.9508004206836276,-1.0436567794101328,0.625858,-0.213456,0.724743,0.193616,-0.9598314984709478,0.21420978593272172,0.10152079510703363,109.95661694245385,2.7857780957055756,-60.42601983522054,0.19499662989647398,-0.06559191234525578,0.11655043929430998,-9.710214093715008,0.13201683665953062,-1.3893933241011538,0.364005,-0.635965,-0.403387,-0.548021,0.14277451580020387,-0.20092222222222222,0.8713058103975535,100.74494528701756,319.8332345384959,43.15649893218241,-0.21278605592674776,0.10363857334429478,0.07052706011862139,9.718913204313646,-0.20463465650664195,-1.3179342868194528,0.567501,-0.316993,0.722594,0.235193,-1.0072810397553518,0.08088929663608563,-0.2197361875637105,26.349985223389485,-42.5617114450571,39.49890825540577,0.19304546483328539,-0.0774133729551756,0.12510091893575218,-9.508390713044813,-0.19511689767064608,-2.4059375395729936,-0.331886,0.425587,0.101555,-0.835712,-0.6130489296636085,-0.5760039755351681,0.565432619775739,-2.5662779643909572,-1.4895756757811143,-4.825393254812281,0.10289251890379839,0.0668543756092464,-0.20578503780759677,-6.316919839879619,-4.436414929383997,6.053994244370744,0.615096,-0.47834,0.046544,-0.625045,0.4864586136595311,-0.6959512742099898,0.5316625891946992,-14.710576798424858,-10.172521877870688,6.653415100177172,-0.08998065295378319,0.21462251570733956,-0.04194899112541619,5.30436588720817,-6.343482808682762,5.278259977546439
9,9,150000000,0.711164,-0.017111,0.105094,-0.694916,-0.15217461773700305,-0.019816717635066258,0.7757640163098878,10.799681480420887,5.402820120745124,-4.569567599286368,0.030988290238589598,0.13502856712378178,-0.18317516928655417,-1.2330848362419518,-1.6716284704230688,9.58755756402543,0.543545,-0.439783,-0.346563,-0.625335,0.9903440366972477,-0.11110356778797145,0.30338664627930684,8.646735269437306,-20.012155276770365,7.534967963765456,-0.1912092401045022,0.11052488618084898,-0.06255034194197179,9.091599466850202,-0.43799445645385704,3.6588358791403564,-0.521054,-0.47047,0.406787,-0.584538,0.8942203873598369,-0.41626941896024466,0.30383435270132514,-5.914586023355975,38.52316113029798,4.552665344330008,-0.20813790641168278,-0.11178734944483959,-0.0317916973203844,9.554268352522152,0.14436040302114733,2.22063421617186,0.772576,0.633829,0.024749,0.027832,0.006013557594291539,0.6714503567787972,0.23912273190621816,-110.3321907771621,-14.446099480192473,25.537588365673486,0.10404027688519218,-0.20326011127961557,-0.030816232314694395,-0.029032786838166316,9.621057097585775,1.9158594474237507,-0.221789,-0.125803,0.623077,-0.739431,0.5851361875637104,-0.9968104994903159,0.49679561671763506,138.540965679515,88.54277771567544,-42.673380919328096,-0.18179800073996677,0.14248864142512857,-0.0462527897408822,4.536424258835248,-8.491943465485303,1.8825119183825985,0.105032,-0.034643,0.131971,-0.985064,-0.025392150866462793,-0.2571670744138634,1.0791727828746176,-75.13459128136245,4.992983409888046,-0.49732736617355455,-0.11454192158982299,0.07609332199807799,-0.17915813387758017,0.3975876951666157,-2.6219893310097784,9.44474435719268,-0.096678,-0.023689,0.172797,-0.979915,0.1704137614678899,-0.557848623853211,0.9968903160040774,-149.89492653094544,-10.169427905776981,-18.189461938900195,-0.11804231312349418,0.05078623397335039,-0.19321752275718057,0.7832083119735922,-3.2772495501259544,9.213160159589908,-0.032654,0.741407,0.041789,-0.668956,-0.9015438328236492,-0.2655293577981651,0.06727777777777777,293.77333784678115,20.54769892787915,3.724111076791325,0.21927066522240457,0.026282553030417596,-0.08556214905572039,-9.704141097909313,-1.0234764127057772,-1.0090795729288808,0.625507,-0.217902,0.725041,0.188613,-1.0627534148827726,0.40734169215086646,-0.03153272171253822,6.099708686962744,16.232868364307944,-43.32340153790402,0.1955130387199682,-0.06605096852745158,0.11655043929430998,-9.704396655330587,0.00888652580692885,-1.4355161391178035,0.356546,-0.653674,-0.416753,-0.521442,0.5881581039755351,-0.1202840978593272,-0.08757584097859326,46.78624386011568,-236.73813953892432,28.81101084081491,-0.20653109224809318,0.108516368476362,0.08653761406141039,9.602908999467164,-0.309060889992111,-1.9810906375604915,0.571761,-0.308652,0.722571,0.23604,-0.8511041794087666,0.16196595310907236,-0.2170565749235474,38.41636179728559,-36.932572995235304,37.520255805700984,0.19413587017338077,-0.0783888379608656,0.1256173277592464,-9.53516160184604,-0.11614088012882436,-2.3028904712651252,-0.331907,0.42531,0.101594,-0.835839,-0.6115019367991845,-0.4953083588175331,0.6054230377166157,2.081555669710281,-1.7582928816974703,-0.4226709654680083,0.10346651542039959,0.06587867555174778,-0.20572768516629839,-6.313151694515987,-4.435685938854282,6.058457388963001,0.614711,-0.479574,0.046761,-0.624462,0.537127115188583,-0.6986758409785933,0.4557775739041794,-7.375112738923956,-6.120220576028427,1.5038996206593849,-0.08946424413028899,0.21513892453083375,-0.04194899112541619,5.311745746845001,-6.356876288954552,5.25467229880241
10,10,166666666,0.710845,-0.01562,0.105894,-0.695156,-0.07697339449541284,-0.04205423037716615,0.810607747196738,4.75698209407366,11.203158359752013,-1.7298741750589814,0.030988290238589598,0.13399551442498478,-0.18420798693354257,-1.2638396358663122,-1.662132789582401,9.5852033867106,0.545189,-0.438909,-0.348271,-0.623566,1.0762174311926604,-0.047158919469928645,0.28588572884811414,19.350961981189396,-4.557650077147647,6.364357892533671,-0.19115165241139517,0.11000847735735478,-0.061976580477179195,9.095096740825024,-0.4339633542196119,3.6506151649041922,-0.521224,-0.470579,0.405075,-0.585487,0.8850008154943935,-0.2874715596330275,0.2871080530071356,9.113867759807466,9.43735973093833,-3.182035706818053,-0.20865431523517697,-0.11075429674604259,-0.0329394553017782,9.54812751380452,0.15913631905979939,2.2458932770916045,0.759743,0.649199,0.022506,0.028705,0.03861977573904179,0.8771388379204893,0.028699999999999996,136.10686907846073,-9.291312788959482,19.253272677119593,0.10312216452080059,-0.20578503780759677,-0.022380457955848997,0.030145785997804757,9.68974497287983,1.5310237072418604,-0.223779,-0.126276,0.615359,-0.745192,0.27596676860346586,-0.6400886850152905,0.8766810397553517,63.88129911453649,22.796329090649575,-10.898975066317059,-0.1822570569221626,0.14151317641943859,-0.0473431950809776,4.547997899435303,-8.44253462482891,2.0677098963096956,0.104396,-0.03505,0.136524,-0.984497,0.03441478083588175,-0.4938688073394495,1.0775010193679917,-31.094419541749776,1.4602402366704161,-3.3771851318396116,-0.11454192158982299,0.07609332199807799,-0.17812508117878317,0.39738459528032627,-2.7088652078678583,9.42020354180508,-0.099322,-0.022551,0.187568,-0.976957,0.18739327217125382,-0.8456402650356778,0.899706116207951,-102.99621105564559,1.4370354459676178,-15.068732716161136,-0.11580438485381359,0.05463121145842919,-0.1917830015692948,0.7977684362128021,-3.5513383967908525,9.109756369610638,-0.034581,0.744269,0.036199,-0.666001,-1.0544290519877675,0.35177115188583075,-0.17009123343527013,33.409226329857816,31.829810871800188,19.230755435770952,0.22036107056249998,0.0238149791437348,-0.08177452421193998,-9.700758886454041,-0.9779813059380232,-1.083941692213542,0.626463,-0.222338,0.722185,0.191204,-0.7798028542303772,0.08711243628950051,-0.1135781855249745,-33.36470750917615,-14.99241473784971,-17.700786235433114,0.1955130387199682,-0.0665100247096474,0.11551738659551297,-9.710604834687663,-0.023580679375024845,-1.3927303027150733,0.356034,-0.654706,-0.409401,-0.5263,1.7292045871559631,-0.4769565749235474,-0.09260570846075433,-45.23094992523307,35.01551350850708,21.90010850750594,-0.21049077501576877,0.10857372111766038,0.07792978177866978,9.62031268519411,-0.3458972968577106,-1.888395853395117,0.575084,-0.301853,0.722861,0.235872,-0.8375970438328236,0.24931162079510702,-0.20768715596330276,35.928922825504635,-26.81259134717811,28.075963285441574,0.19562774400256497,-0.0783888379608656,0.12349410477216259,-9.553061170405664,-0.06058968781598756,-2.229675125263311,-0.331854,0.424793,0.101171,-0.836175,-0.6344434250764526,-0.48940377166156984,0.5900019367991844,4.886184076875661,-2.7901898707280828,1.7122843707484652,0.10346651542039959,0.0663953194270506,-0.20681809050639377,-6.310324998601902,-4.425601647963133,6.068768282408379,0.614788,-0.479445,0.046616,-0.624496,0.5590654434250765,-0.6853708460754332,0.4502550458715596,1.5161036216956711,-0.013120733508495852,-0.10720040346897702,-0.08946424413028899,0.21462251570733956,-0.041432582301922,5.3121640629267,-6.354300093881867,5.257364671148756
11,11,183333333,0.710585,-0.013396,0.107354,-0.695245,-0.13986197757390417,-0.0661808358817533,0.8992245667686035,4.620217068375933,18.110107284274573,-0.0907565147487224,0.0326524570434776,0.1334791056014906,-0.18420798693354257,-1.3139626621042815,-1.6511455343515653,9.580361190841748,0.545603,-0.438434,-0.349611,-0.622788,0.9528899082568806,0.08717349643221203,0.2783470948012232,10.291181437242281,-4.5074016785146735,-0.3964294984510166,-0.19224205775149059,0.11150035118653898,-0.060886175137083796,9.099763068466324,-0.4213861092406885,3.6404458304877156,-0.520754,-0.472324,0.402625,-0.58619,0.9700913353720693,-0.13405728848114168,0.24010744138634044,19.55304419553204,2.6264385328796935,-9.03754978149604,-0.20859696259387858,-0.11224640562703538,-0.03230810614387859,9.545915598309719,0.19521626494614416,2.252440010266128,0.757096,0.652103,0.024663,0.030966,-0.08720968399592252,1.3503013251783893,0.24725871559633025,25.88651966290816,20.442389285134105,2.8361410858975753,0.10312216452080059,-0.20526862898410259,-0.0229542194206416,0.029837372113267892,9.701469422239574,1.4548885801242333,-0.219186,-0.128167,0.623807,-0.739186,0.3402571865443425,-0.8089775739041793,-0.025434658511722733,-61.33599140544733,-47.06212303847118,12.64368884826993,-0.18277346574565675,0.14294769760732437,-0.044129566753798394,4.541420229293762,-8.495789940836797,1.852877648992987,0.103969,-0.03483,0.132046,-0.98516,0.06455759429153925,-0.42913965341488275,1.0127925586136595,31.399920638113528,-0.6657196621625036,-4.049436512866606,-0.11448456894852459,0.0746014481688938,-0.18070759539987138,0.4038669425030832,-2.6233471178966488,9.444100877890735,-0.10133,-0.021374,0.191073,-0.976098,0.06582018348623854,-0.7391724770642202,0.8102580020387359,-25.008175362972608,8.29660076083286,-11.472104748786421,-0.11769796222389517,0.05457385881713079,-0.19229941039278897,0.789204945274873,-3.616750716318471,9.084732786954358,-0.031658,0.744832,0.033866,-0.66564,-1.1328050968399592,-0.066359123343527,-0.1454296636085627,-4.333394396133443,4.460648322431998,24.281206512510618,0.21938560555680997,0.0238149791437348,-0.08389798225083238,-9.706359678336137,-0.9049221710574368,-1.0971771320525976,0.623907,-0.224144,0.723854,0.191141,-0.7185163098878694,-0.05659041794087665,-0.14603955147808356,-8.254373771331718,22.374345674535725,-4.613169687495823,0.1955130387199682,-0.06605096852745158,0.11551738659551297,-9.701318922995602,-0.029171668066108342,-1.4559052744288306,0.373353,-0.636829,-0.400503,-0.54282,0.6480658511722731,-0.047026401630988784,0.003426503567787971,41.84224834171132,209.69716721460708,11.518342442853479,-0.21204023653805998,0.11006582999865319,0.06817419151453538,9.716071054237872,-0.39948247406802234,-1.294015850719549,0.576208,-0.299446,0.722483,0.237349,-0.8402033639143731,0.2758525993883792,-0.12800091743119266,4.3633600888187845,-14.073103955562306,14.844820809824013,0.19516868782036917,-0.07988094684185838,0.12188729060857298,-9.562273778410377,-0.020847494188336754,-2.1905674079359962,-0.331828,0.424058,0.100466,-0.836643,-0.6194190621814475,-0.45925749235474,0.6195520897043832,7.307159944421441,-3.758660431837714,2.5093259595549533,0.10243346272160259,0.0663953194270506,-0.20630168168289956,-6.306804779705168,-4.409958129857012,6.083796739174978,0.615199,-0.478538,0.046471,-0.624797,0.5514491335372069,-0.6590169215086645,0.5015477064220183,6.1610151710417425,4.205510216260243,0.5068957613522393,-0.08900518794809319,0.21663103341182657,-0.04246539994891039,5.305255669120466,-6.345721632691885,5.274673378101375
12,12,200000000,0.710291,-0.011271,0.109076,-0.695314,-0.1907597349643221,-0.08713567787971457,0.9671255861365952,2.7431500357478424,18.718473871144482,-0.2580601909269228,0.03374286238357299,0.13296269677799638,-0.18529839227363798,-1.3663143107106368,-1.6450939136014102,9.574077042711686,0.5448,-0.438826,-0.350574,-0.622674,0.8539659531090724,0.07612415902140673,0.3048439347604485,0.6636570141000325,-7.313748959065446,-5.110497053669378,-0.19172564892799637,0.11104129500434319,-0.06031241367229119,9.108351502351042,-0.4076856064997309,3.620473084539164,-0.521296,-0.473069,0.400433,-0.586609,0.9476804281345564,0.08320214067278286,0.3094865443425076,10.838470723151245,7.690296822025423,-10.372484148371345,-0.20756414494689016,-0.11322187063272537,-0.03339851148397399,9.540233019784186,0.2297770757844502,2.2731600083723764,0.767931,0.639312,0.024266,0.031216,0.003956167176350662,1.0018107033639143,0.16370285423037717,-115.42796281549661,0.46117372930079964,-1.38094287782431,0.10254816800419939,-0.20423557628530556,-0.029668474333300596,0.025940548664348115,9.647241005990159,1.7793729401890404,-0.217655,-0.12661,0.623521,-0.740147,0.37935351681957186,-0.9552957186544343,-0.09192273190621814,5.1916278774599025,2.713585413519092,14.69831550160906,-0.18328987456915097,0.14386604502352457,-0.042580105231507195,4.501269812482042,-8.513902415637466,1.867655142749966,0.103773,-0.034361,0.123903,-0.986255,0.01201335372069317,-0.23463455657492355,1.0224951070336392,56.72746267609206,-2.0910667691094527,-3.3966656968740594,-0.11488627248942199,0.07110082158341399,-0.18122400422336557,0.41262652847953485,-2.4675220134097544,9.485629892702603,-0.101647,-0.020893,0.186952,-0.976873,-0.0027230377166156984,-0.5056091743119265,0.8360513761467888,28.8258504477088,7.5145133704792855,-0.599886811501972,-0.11666514457690678,0.05268004639524059,-0.19166829628669796,0.7732810255925872,-3.541499332310983,9.115696294562436,-0.035576,0.745135,0.027603,-0.665392,-0.8782030581039755,0.1544934760448522,-0.06660112130479102,48.39373425013472,7.050532147982345,14.310022003848902,0.22047577584509678,0.020888349074856198,-0.0827502242694386,-9.708461306523443,-0.8804617539474793,-1.0984835727369102,0.622352,-0.226224,0.723794,0.193969,-0.9429175331294597,-0.09634454638124362,-0.2817057084607543,-24.640221866939594,6.125778266641197,2.6068433762862195,0.19557039136126655,-0.06800213359064018,0.11603379541900719,-9.698844335665358,-0.00779620417605851,-1.4725684268421961,0.362601,-0.648035,-0.398934,-0.537981,0.6400749235474006,-0.037638430173292554,0.11063893985728848,-68.86849565069372,-88.41403409910954,9.538601373337945,-0.21003171883357297,0.10954918612335038,0.07683937643857439,9.678232473607993,-0.39944773419422425,-1.5518884284789205,0.575274,-0.300847,0.721372,0.241193,-0.960095616717635,0.057912538226299694,-0.18297319062181447,-27.594907920649735,-5.266971827519606,6.837907510209297,0.1962017405191662,-0.0808564118475484,0.12137064673327018,-9.565699535047358,0.018058621898939593,-2.1755841264749596,-0.331855,0.423656,0.09988,-0.836906,-0.6484902140672782,-0.43664138634046884,0.6340372069317023,6.04424637239408,-1.4471195031619204,1.5970625581476567,0.10249081536290099,0.0649032105460578,-0.20681809050639377,-6.306155050944385,-4.398462116087271,6.092785855977026,0.615797,-0.477392,0.046298,-0.625098,0.538254128440367,-0.6379554536187564,0.5427405708460754,7.889456951612898,4.960210224006563,0.915242781941977,-0.08843142648330059,0.21467986834863798,-0.043039161413702995,5.295567354105191,-6.335637865114379,5.296485555560809
13,13,216666666,0.709892,-0.009774,0.110513,-0.695518,-0.22295290519877672,-0.12149051987767583,0.9884723751274209,0.7484547677793943,14.441229338933862,-1.909725626950547,0.03431662384836559,0.13296269677799638,-0.18369157811004838,-1.4058565632413176,-1.64419946504846,9.56850434721779,0.543438,-0.439672,-0.351772,-0.622591,0.8666742099898063,0.05786462793068298,0.3047730886850153,-1.8320325499308074,-11.420252068327082,-7.305154592138483,-0.19373416663248338,0.10995088966424778,-0.05807425035080199,9.121384530972465,-0.3909167795289066,3.5893771478654766,-0.522772,-0.472392,0.399386,-0.586554,0.9323751274209988,0.19615871559633027,0.2858213047910296,-2.9206523606793713,10.036444401527117,-7.955748168509533,-0.20756414494689016,-0.11322187063272537,-0.0344889168240694,9.532798042186323,0.24901430593777504,2.3021410387565022,0.769406,0.637449,0.025317,0.032126,0.10877624872578999,0.8163346585117227,0.04673119266055045,-16.42148607046501,10.316735354905116,-0.6303108704234186,0.10306481187950219,-0.2037765201031098,-0.028004307528412594,0.01961283911483641,9.638727063489121,1.8250084745294335,-0.2185,-0.124539,0.620017,-0.743187,0.3307256880733945,-0.8914080530071357,0.5082890927624872,27.71803655082335,22.314185106046992,5.070218120671681,-0.18087965332376657,0.14248864142512857,-0.0473431950809776,4.4739374648105334,-8.506775084019214,1.9633545861292283,0.104113,-0.034417,0.119036,-0.986816,-0.04382487257900102,-0.14112313965341486,1.0163391437308869,33.77414314957664,-3.740153895054988,1.0032490992740715,-0.11637814631860617,0.0700680039364256,-0.18168306040556137,0.42320464423671766,-2.375000117772457,9.508752403426925,-0.099901,-0.020825,0.182155,-0.97796,0.012121100917431193,-0.41010907237512745,0.8891002038735983,34.43940444550304,2.5938372343367497,12.853849767523915,-0.11614873575341259,0.05176193403084899,-0.19327511045028758,0.7566154766374266,-3.4542942288310847,9.150490937713506,-0.028383,0.745587,0.031867,-0.66504,-0.8855283384301732,0.1756861365953109,-0.08378766564729867,-56.506816629187185,2.6084476581125857,10.427946462940008,0.22047577584509678,0.021864049132354797,-0.082807576910737,-9.710743508627305,-0.8310022775207109,-1.1166896276083529,0.622702,-0.22472,0.724211,0.193032,-1.0906269113149847,0.03801651376146789,-0.18784536187563708,13.231600841853666,-0.3912728782948392,2.477698689263732,0.19505398253777237,-0.0665100247096474,0.11551738659551297,-9.699066471092198,-0.0027015899800796653,-1.4711227993429843,0.360601,-0.652728,-0.402146,-0.531217,1.3010986748216105,-0.28184770642201834,-0.19587145769622832,9.478383509069696,-60.87728139466558,7.545968753431969,-0.20756414494689016,0.10909012994115458,0.07735602031387719,9.648224143899517,-0.426687550050345,-1.7221523172200757,0.574585,-0.301815,0.720407,0.244487,-1.0355024464831803,-0.08242945973496432,-0.16534892966360856,-22.74934655144885,-5.384027105064833,6.8329227773916585,0.19470963163817337,-0.0808564118475484,0.11976383256968058,-9.56915913838397,0.05320499549304793,-2.159736699863462,-0.33186,0.423162,0.0999,-0.837152,-0.6718455657492354,-0.45198980632008157,0.6198519877675841,2.4180537827906132,-3.3556992145222058,-0.11058085446024889,0.10294987154509679,0.06536226672825358,-0.20624409398979257,-6.299940834907098,-4.396094231520667,6.100918044381579,0.616206,-0.476706,0.046345,-0.625215,0.5301528032619776,-0.6153945973496432,0.5848141692150867,4.173539171291943,3.365611384377969,1.5421732013741238,-0.08952159677158739,0.21565533335432796,-0.043039161413702995,5.287308408630509,-6.3318577173495605,5.309241719800101
14,14,233333333,0.709383,-0.008861,0.11107,-0.69596,-0.21515086646279305,-0.16333700305810397,0.9762086646279305,2.5725805001373963,7.373107386640998,-4.096934714082951,0.0332262185082702,0.1324462879545022,-0.18420798693354257,-1.4248886780964498,-1.6399602894627487,9.56641638776077,0.541764,-0.440883,-0.353021,-0.622487,0.9321165137614678,0.05154373088685015,0.30057461773700306,-3.615191799936955,-13.381142826382812,-7.307503719098519,-0.19321752275718057,0.10995088966424778,-0.05864824686740319,9.136995380229722,-0.3748117583998457,3.551187346145784,-0.524693,-0.470505,0.40011,-0.585862,0.8922912334352702,0.1585919469928644,0.23657665647298673,-17.56780273118325,7.584299629926219,-3.1093273626159514,-0.20658844488939157,-0.11218905298573699,-0.035062678288862,9.52719573569561,0.24449335890966215,2.3256965432301175,0.767603,0.639565,0.025682,0.032917,0.08528735983690111,1.0030775739041795,0.11915107033639143,18.042670151787675,4.804594886849031,3.216126695628337,0.10208911182200359,-0.20475222016060837,-0.029094477816699396,0.02627078215370548,9.648664144446567,1.771634859014755,-0.217753,-0.125115,0.621516,-0.742056,0.36121416921508664,-1.016598980632008,0.4284433231396534,-10.367957781789812,-9.346603216189607,-0.06480152662929611,-0.18139629719906938,0.14392339766482298,-0.04579373355868639,4.4768808482588005,-8.514212411130055,1.9240127049093247,0.10499,-0.035154,0.118737,-0.986733,-0.06837563710499489,-0.1841005096839959,0.94441498470948,2.0742791057121193,-5.2812384766183635,5.484466606551266,-0.11482868479631499,0.0700680039364256,-0.18116665158206718,0.4359844997802557,-2.371128645663476,9.509141205264827,-0.096985,-0.020932,0.179398,-0.97876,-0.0072793068297655455,-0.37570458715596333,0.9177383282364933,20.7200446326545,-1.7729033054733063,20.479803429156146,-0.11517303569591399,0.050843821666457394,-0.19482433692077017,0.7433303149633085,-3.405201421548359,9.169959832057149,-0.018353,0.746608,0.038763,-0.66388,-0.8927267074413864,-0.1549954128440367,-0.15100091743119265,-83.35298330315996,8.531169682159419,10.031574260268505,0.22145147590259537,0.021864049132354797,-0.080110357407052,-9.710858532553114,-0.7737440182440672,-1.156134401776843,0.623425,-0.224975,0.723359,0.193596,-1.1501087665647298,0.1387716615698267,-0.033540366972477066,-3.135454238073917,-7.586075799091125,-2.124011842329475,0.19557039136126655,-0.0670264335331416,0.11551738659551297,-9.702370129336808,-0.0042306680912123345,-1.4491707886927319,0.363721,-0.647171,-0.395434,-0.540841,0.9381714576962283,-0.046505198776758405,-0.26556676860346584,-23.947286709508376,88.82329785217149,1.7672310233015112,-0.21198264884495296,0.10909012994115458,0.07305198664660259,9.68922144293463,-0.4222764872114711,-1.4753882194609278,0.574382,-0.301628,0.719692,0.247284,-1.0472877675840977,-0.08841946992864425,-0.2103651376146789,-14.674365865772593,-7.695224259063548,10.426456772672669,0.19476698427947178,-0.08234852072854118,0.12142823442637718,-9.57389032605544,0.09257936827909652,-2.1373238138454997,-0.331929,0.422286,0.099948,-0.83756,-0.6557889908256881,-0.4609690112130479,0.6137212028542304,3.3661270463935864,-6.0610913315709265,-0.44610493928885897,0.10254816800419939,0.06387039289906939,-0.20676073786509536,-6.288497325886463,-4.392559177562967,6.115253490569806,0.616307,-0.476698,0.046626,-0.6251,0.5273466870540264,-0.6283450560652395,0.5785506625891947,-0.5957615153770299,0.8649943833090038,2.0298748765894805,-0.08900518794809319,0.21565533335432796,-0.04464597557729259,5.28264927883491,-6.336052476335754,5.308875174078269
15,15,250000000,0.708839,-0.008281,0.110605,-0.696595,-0.17987594291539244,-0.15602120285423035,0.9828761467889908,5.771804940809374,1.242974640756808,-5.416800290946316,0.0332262185082702,0.1334791056014906,-0.18265876046305998,-1.4250531947837883,-1.6268283725013777,9.568633802088,0.540226,-0.442199,-0.354291,-0.622169,1.005514475025484,0.030059225280326198,0.2947492354740061,-3.315534873083535,-14.718884686454256,-6.023276117092292,-0.19419322281467918,0.10943448084075358,-0.05755784152730779,9.153112648266275,-0.3621559903668566,3.5107651426418953,-0.525806,-0.468652,0.401651,-0.585294,0.8754552497451579,0.03328695208970438,0.184317125382263,-17.940740960033903,2.7501401208484384,2.998288141919598,-0.20658844488939157,-0.11270546180923117,-0.035579087112356196,9.525315347294342,0.22241470863786833,2.3355939784090065,0.768867,0.638015,0.025498,0.03362,0.07674097859327217,1.0019340468909275,0.09086839959225279,-14.131946721122242,2.9855111830881804,3.5165857633949407,0.10254816800419939,-0.2037765201031098,-0.028004307528412594,0.03620858109788516,9.641383642045856,1.8106657354535254,-0.216128,-0.126246,0.618686,-0.7447,0.36912772680937816,-1.0917462793068298,0.14475239551478083,29.28897223351304,-6.0906559537996765,3.8943368377246923,-0.17944513213588079,0.14300505024862278,-0.04573638091738799,4.468078387406825,-8.504293828179906,1.9873001806393515,0.106321,-0.035735,0.12041,-0.986367,-0.01796085626911315,-0.25457064220183484,0.9349916411824669,-11.358773696909545,-3.7376328807564123,9.298875831855208,-0.11591909013641039,0.07207652164091259,-0.18065024275857297,0.44038508016929323,-2.4047818812804826,9.500483413207425,-0.093589,-0.021176,0.176207,-0.979665,-0.008537003058103976,-0.4380995922528032,0.9247504587155962,23.593943637251197,-3.3715701454473295,23.25068462218832,-0.11655043929430998,0.049868121608958794,-0.19264376129238797,0.7305788063140002,-3.3479967041556655,9.192022229995294,-0.01094,0.747175,0.043726,-0.663097,-0.9759005096839959,-0.33346432212028543,-0.11077492354740061,-60.73289603029262,4.319586113270789,7.061762120766909,0.22139412326129698,0.0238149791437348,-0.0812007627471474,-9.711336081304983,-0.7292495583102659,-1.1807821973794548,0.623701,-0.226556,0.722717,0.19326,-1.036395514780836,0.11688909276248725,-0.07296360856269113,-4.713838372100309,-1.3457059734237646,-11.765459139893403,0.1955130387199682,-0.0665100247096474,0.11603379541900719,-9.70294549548759,-0.03199858336887324,-1.4449653290856097,0.363633,-0.646769,-0.394343,-0.542176,0.8679362895005096,-0.12490489296636084,0.11378389398572884,-7.731664374833868,10.020917245279072,-0.4332706846779285,-0.21049077501576877,0.10909012994115458,0.07414239198669799,9.693429771144048,-0.4195390644261256,-1.4482769919178884,0.574321,-0.300904,0.719005,0.250285,-0.9991019367991845,-0.06939317023445464,-0.2599396534148828,-12.979499411996104,-10.42611299799559,13.817049116918342,0.19528362815477457,-0.08384039455772538,0.11873101492269218,-9.579506438198612,0.14010034253796974,-2.109390503091386,-0.332084,0.421297,0.100035,-0.837987,-0.6438705402650357,-0.45455616717635067,0.6193813455657492,3.4069789371864143,-6.826161875409115,-1.0524661738758092,0.10197440653940679,0.065419619369552,-0.20790826079468058,-6.274894601655879,-4.389660824853465,6.13128661708591,0.616361,-0.476972,0.046928,-0.624816,0.5409480122324158,-0.6447847094801223,0.5414037716615698,-2.6150366727565904,-1.002962620376506,2.383905498200816,-0.08900518794809319,0.21565533335432796,-0.043039161413702995,5.2796444722168765,-6.343306122565713,5.303199193167284
16,16,266666666,0.708339,-0.007988,0.109709,-0.697248,-0.1626111111111111,-0.14205535168195718,1.0004010193679918,7.133439140937775,-2.4556971099307083,-5.45536035055862,0.0326524570434776,0.1334791056014906,-0.18420798693354257,-1.4154188583157987,-1.6118358280072522,9.572600206792105,0.538875,-0.443544,-0.355105,-0.621919,1.0410996941896025,0.02468603465851172,0.29955290519877675,-5.002494509287217,-12.36654916276515,-3.853714130049917,-0.19316017011588216,0.10897542465855779,-0.056410083545913994,9.166571609570841,-0.3564604795709932,3.4760611118209415,-0.525997,-0.467554,0.403093,-0.58501,0.910309480122324,-0.09364118246687053,0.13274454638124364,-11.094239082897642,-1.4487810807677997,5.619971125099705,-0.20710508876469438,-0.11167264416224279,-0.036153083628957396,9.526478268380973,0.19852620294402526,2.333002175054648,0.768143,0.638795,0.026528,0.034533,-0.022841590214067276,1.042000101936799,0.19816401630988786,6.527593568366443,9.301855212389889,0.47423716702978236,0.10254816800419939,-0.20475222016060837,-0.028520716351906797,0.03300499828685056,9.645241028381806,1.7900659693174272,-0.213578,-0.126644,0.611343,-0.751403,0.27267859327217125,-0.9116312945973497,0.19411396534148828,69.40862296416354,3.978733520947463,13.795505903821422,-0.18087965332376657,0.14300505024862278,-0.049466418068061395,4.428820083948014,-8.482043079419002,2.1625443031066416,0.107953,-0.035631,0.122044,-0.985993,0.0457407747196738,-0.3322462793068297,0.9565681957186544,-10.201112471847717,0.9652047016773848,11.72059654453466,-0.11442698125541759,0.07310933928790099,-0.17961719005977597,0.43079423898011615,-2.4364304210582595,9.492856426123986,-0.090392,-0.021494,0.17059,-0.980952,0.010730682976554535,-0.38052579001019365,0.9518939857288481,40.633536577103335,-1.2496209511803253,22.172893713767728,-0.11557473923681139,0.0479745442388772,-0.19528362815477457,0.7162189971445546,-3.245101630561567,9.229975393003814,-0.007818,0.747594,0.045359,-0.662559,-0.9711190621814475,-0.32245902140672783,-0.118355249745158,-23.824902924468432,4.926291122534818,5.352686313671177,0.22185317944349278,0.024274035325930598,-0.07907753976006358,-9.711323693952219,-0.7043131009372927,-1.1959243985847738,0.623797,-0.228149,0.722714,0.191073,-0.9357854230377165,0.12627003058103975,-0.09767410805300714,4.957116251912856,5.043117216961993,-18.56675464699384,0.19499662989647398,-0.06553455970395738,0.11603379541900719,-9.700528121200792,-0.0829442076245157,-1.4591005545246811,0.364128,-0.648647,-0.398709,-0.536376,0.9698450560652395,-0.05496126401630989,-0.14866554536187562,29.09181745620852,-42.29156184465291,1.45863595484405,-0.21003171883357297,0.10909012994115458,0.07574920615028759,9.674615916923194,-0.43816544559702364,-1.5639430623591175,0.574946,-0.299073,0.718485,0.252529,-0.9366855249745158,-0.0007779816513761468,-0.2620645259938838,-3.1528721550458942,-12.83797883659879,15.375265136556129,0.19482433692077017,-0.08636555613751519,0.11769796222389517,-9.586628186110373,0.1861443878137459,-2.073164317693995,-0.332273,0.420447,0.100131,-0.838327,-0.6099815494393476,-0.45039500509683994,0.6232124362895005,3.3842898084992337,-5.732270852945347,-1.4329101498426757,0.10048229765841399,0.06438680172256359,-0.20790826079468058,-6.2627321576791015,-4.387931390855097,6.144944591314109,0.616423,-0.477274,0.047269,-0.624498,0.5409065239551478,-0.6552117227319062,0.51942874617737,-2.4452692780593273,-0.9144406410287937,2.762114938766673,-0.08848877912459899,0.21565533335432796,-0.043039161413702995,5.276190535398925,-6.351427610070126,5.29691237875479
17,17,283333333,0.708103,-0.00796,0.108194,-0.697726,-0.16097675840978592,-0.12305158002038735,1.0017929663608562,8.514038244085008,-6.830917425108701,-3.5124031714904858,0.0338002150248714,0.1324462879545022,-0.18581480109713217,-1.3941686517561585,-1.5916961865373196,9.57908643975108,0.537905,-0.444631,-0.355227,-0.621913,1.018440366972477,0.011371355759429153,0.29272813455657487,-6.509087031583717,-7.059928655822491,-1.7892326026345347,-0.19419322281467918,0.10943448084075358,-0.056984080062515194,9.174310766365702,-0.3580441906819931,3.4554198470902593,-0.525156,-0.467795,0.404092,-0.584883,0.9786241590214068,-0.13410020387359836,0.1396150866462793,-0.6176485031510274,-7.642569437691026,4.960611294463154,-0.20813790641168278,-0.11069694410474419,-0.035636439753654596,9.531728487256384,0.1828351476960922,2.312752333042178,0.769434,0.637288,0.025994,0.034055,-0.03401111111111111,1.0596245667686033,0.29809551478083585,-14.140140017592612,-4.43578195412332,-1.0079473531941443,0.10404027688519218,-0.2037765201031098,-0.028520716351906797,0.033396678659175894,9.638054801475294,1.8283556288680751,-0.209002,-0.12836,0.607362,-0.755614,0.25779704383282365,-0.752749133537207,0.20029429153924566,45.2630928575399,-18.495077626822972,17.94349115745053,-0.17950248477717917,0.14443980648831717,-0.04952377070935979,4.3935194625415255,-8.4778816814642,2.2491351509774984,0.10921,-0.034919,0.122031,-0.985881,0.04286707441386341,-0.3153914373088685,0.9717119266055045,1.6367685333502227,4.002683156783932,9.021392371673352,-0.11546003395421459,0.07310933928790099,-0.18122400422336557,0.413962237037766,-2.435267038121884,9.493903818732512,-0.087493,-0.021311,0.163452,-0.982433,0.037020081549439345,-0.2906190621814475,0.9709275229357798,50.3894035463549,2.95147749005741,20.31765637313412,-0.11494362513072039,0.04562167563479119,-0.19465227899687498,0.6913602117300325,-3.114008341808646,9.276910752226886,-0.00702,0.748175,0.04486,-0.661946,-1.0137540265035678,-0.2836615698267074,-0.16375076452599388,-1.8655505809459603,5.895277345660066,5.880437738766179,0.22191053208479117,0.023298570320240596,-0.0806843539236532,-9.710654380539324,-0.6856618027567701,-1.212088855634262,0.622855,-0.231075,0.723036,0.189407,-0.8873318042813455,0.06233211009174311,-0.07036717635066259,-4.54006027283713,12.554708502686113,-21.17967137590845,0.19545568607866978,-0.065075268469953,0.11758325694129838,-9.694512225327447,-0.13691108611046635,-1.4945862529398235,0.363917,-0.649069,-0.398649,-0.536053,1.1131234454638124,-0.005840570846075433,-0.2549666666666667,-1.7075861168283923,-3.3546105947114566,0.9194826696259452,-0.21054812765706718,0.10954918612335038,0.07523256227498479,9.672866714665773,-0.44165112498718817,-1.573751506467425,0.574837,-0.298242,0.717664,0.25607,-0.9418850152905197,0.05162691131498471,-0.24116687054026503,-14.821730610680238,-11.47915212966653,15.919460450371385,0.19488192461387718,-0.08734102114320519,0.11609114806030559,-9.592433384474825,0.24194780099227242,-2.040289936751117,-0.332241,0.420038,0.10017,-0.83854,-0.5857483180428134,-0.47652986748216103,0.6186571865443425,1.9480565034447992,-2.840782044038135,0.023663156938902998,0.10197440653940679,0.06438680172256359,-0.20842490466998337,-6.25756917890856,-4.386061577741475,6.1515357275589055,0.616597,-0.477317,0.047488,-0.624276,0.5393149847094801,-0.6644476044852191,0.516874108053007,-0.4964679294808584,-0.07494287960311168,2.4176527123340215,-0.08751307906710039,0.21668838605312496,-0.043039161413702995,5.271832281389925,-6.356059268188818,5.295695891586505
18,18,300000000,0.708237,-0.008404,0.106378,-0.697864,-0.1477393476044852,-0.09155351681957187,1.018098878695209,6.984412818424248,-11.236676390767167,-0.6308265324390364,0.030012825232899595,0.1324462879545022,-0.18627385727932796,-1.363117878683413,-1.5733149069737404,9.586589062451138,0.537141,-0.445527,-0.354829,-0.622159,0.9772941896024464,-0.017588379204892965,0.32474648318042815,-8.199083344101593,-3.259155826042662,-0.7128740887017703,-0.19522604046166758,0.10943448084075358,-0.056984080062515194,9.177877780558047,-0.3639658866023672,3.4453139593553197,-0.524351,-0.468539,0.40472,-0.584576,1.0451914373088684,-0.08183700305810397,0.17833690112130476,2.0701538095871777,-8.732392459809363,1.2265307520365532,-0.20865431523517697,-0.11121358798004698,-0.036153083628957396,9.537515894600618,0.1783319318201723,2.2891239115290083,0.770349,0.636304,0.024555,0.032824,0.04742813455657492,0.9353645259938838,0.28246687054026504,-10.067441418243694,-13.24483616692119,-0.2510128100468137,0.10352386806169799,-0.20326011127961557,-0.028578068993205193,0.038653781323201915,9.633062667751476,1.8543757775494665,-0.205079,-0.129953,0.606533,-0.757081,0.340025993883792,-0.7424142711518857,0.1857341488277268,16.635313919607835,-22.005819220707583,13.846671034926604,-0.18001889360067339,0.14495621531181138,-0.05113058487294939,4.370793094893499,-8.486520511249648,2.2608045766430838,0.109528,-0.034036,0.121656,-0.985923,0.0298927624872579,-0.2509348623853211,0.9881378185524973,3.9583935192203183,5.897053514824972,2.7719698128429227,-0.11442698125541759,0.07265028310570519,-0.18283081838695517,0.3969548521470487,-2.426433757935817,9.496891389486688,-0.084641,-0.020754,0.157616,-0.983648,0.05962517838939857,-0.19882752293577982,0.9748175331294597,41.12983261924566,4.856390271528857,20.48942912011434,-0.11396792507322179,0.04464597557729259,-0.19677550198395877,0.6622803998069663,-3.0073902442156157,9.314133807876512,-0.010255,0.749031,0.040743,-0.661202,-1.104317125382263,-0.17003934760448522,-0.17105942915392455,34.69981376339,10.277430450159143,6.044933921748237,0.21995936702160257,0.022323105314550597,-0.0795939485835578,-9.708812574998895,-0.6792570042787605,-1.2303122797410289,0.620747,-0.235022,0.723951,0.187971,-0.9372229357798165,-0.0322986748216106,-0.109114373088685,-11.056194685300957,21.757957678533984,-22.873964871889804,0.19591474226086558,-0.06312433845857299,0.11970647992838218,-9.683795742760374,-0.19242128253671392,-1.5566547666464094,0.365754,-0.647218,-0.39684,-0.538378,1.0451145769622832,-0.09462415902140672,-0.14262528032619776,-0.7386571894826574,26.82771743296956,3.4117917826655133,-0.21003171883357297,0.11006582999865319,0.07626561497378179,9.684309520244055,-0.4526853382419978,-1.4984408899423107,0.574858,-0.2973,0.716815,0.259474,-0.9715929663608561,0.04640927624872579,-0.22108960244648318,-13.722453784942243,-11.928351041049096,15.690964881673214,0.19539833343737137,-0.08734102114320519,0.11666514457690678,-9.598274628493805,0.29605754562709563,-2.005386268450386,-0.332081,0.420185,0.099793,-0.838575,-0.6098728848114169,-0.46740998980632004,0.6351962283384301,2.3529084814842385,1.7075861168283923,1.9809442808853082,0.10197440653940679,0.06438680172256359,-0.20842490466998337,-6.263043614728096,-4.379564484192089,6.150593435500095,0.616858,-0.47714,0.047555,-0.624149,0.5329026503567788,-0.6662818552497451,0.5244258919469929,1.4651676737085413,0.46535632120525466,1.593109149361254,-0.08751307906710039,0.21668838605312496,-0.043555805289005795,5.26741708728348,-6.357058323116136,5.298889195396885
19,19,316666666,0.708659,-0.009828,0.104419,-0.697713,-0.14050988786952087,-0.10234281345565749,1.013230377166157,2.8050867734014844,-15.979334539962554,1.7095341733318372,0.031676992037787594,0.13135588261440678,-0.18627385727932796,-1.317292266109746,-1.5660511442660607,9.594181825418486,0.536543,-0.446144,-0.354868,-0.622211,0.9629290519877676,-0.021917838939857288,0.3250567787971458,-4.410858290035129,-3.8925606685597867,-1.1272944619198948,-0.19470963163817337,0.10891807201725938,-0.054745916741025996,9.182107514180796,-0.3643954775992486,3.4339798388939,-0.524311,-0.469202,0.405347,-0.583645,1.068730377166157,0.010815290519877676,0.19370611620795106,-2.076112570656538,-8.530367541246235,-3.752014121414196,-0.20762149758818857,-0.11121358798004698,-0.035062678288862,9.5426811531881,0.1849973322155061,2.2669610485541662,0.7694,0.637509,0.023727,0.03228,0.05572864424057084,0.9108359836901122,0.2594151885830785,9.473169593134006,-7.460254267280396,1.37183284888173,0.10254816800419939,-0.2037765201031098,-0.029668474333300596,0.04558194756646663,9.638634935031465,1.8250311984311627,-0.203007,-0.130594,0.607793,-0.756519,0.3770076452599388,-0.8067061162079511,0.22685178389398572,-5.645009380746923,-14.277019634849367,7.236571544061324,-0.17996154095937497,0.14398075030612137,-0.04895000924456719,4.359232108799401,-8.501257168483475,2.2275147534686806,0.108705,-0.033561,0.122471,-0.98593,0.03554740061162079,-0.2076307849133537,0.9772650356778797,-4.985936029007937,4.563436950878468,-4.925488981621635,-0.11494362513072039,0.07310933928790099,-0.18122400422336557,0.38799692191124735,-2.4406505620597754,9.493618025942729,-0.081714,-0.019957,0.15607,-0.984158,0.049683893985728846,-0.14534220183486238,0.9854813455657492,11.234900221602262,3.4260011359847575,21.265500453619044,-0.11402527771452019,0.04562167563479119,-0.19522604046166758,0.6355690307154699,-2.9815872660994875,9.324284926032064,-0.013956,0.749748,0.035538,-0.660621,-1.103706116207951,0.01260998980632008,-0.10667900101936799,42.29677576058861,8.970914789922325,9.787723422660827,0.22104977236169795,0.0198555314278678,-0.07902018711876518,-9.708041929835575,-0.6659152777222256,-1.2436151862415121,0.619354,-0.238264,0.724569,0.186095,-1.0097681957186544,-0.07474332313965341,-0.19645535168195719,-5.333549523313808,16.638694370599104,-22.37308516738644,0.19539833343737137,-0.06312433845857299,0.11919007110488798,-9.67470252842905,-0.24978387872849633,-1.604318858686108,0.367121,-0.64789,-0.398446,-0.535445,1.008008868501529,-0.028003873598369013,-0.22068827726809376,18.148953822784446,-15.746026125785285,6.57623768517305,-0.21014642411616977,0.11201676001003318,0.07517520963368639,9.67633741799963,-0.480849119201773,-1.540577261153457,0.574954,-0.296016,0.716208,0.26239,-0.9829630988786952,0.06308521916411824,-0.18991743119266052,-10.014786596871172,-11.280106591638082,16.16606148539569,0.19442263337987278,-0.08883313002419799,0.11505833041331719,-9.603171839204284,0.3478671932166977,-1.9733674373003536,-0.331874,0.420495,0.099638,-0.83852,-0.6683029561671764,-0.42393822629969413,0.6419686034658512,0.5294702984803937,2.375597610171419,1.5092854239336146,0.10048229765841399,0.06484585790475939,-0.20681809050639377,-6.269104669464301,-4.3772186961335935,6.146086814349387,0.61717,-0.47673,0.047332,-0.624171,0.5333346585117227,-0.6648211009174312,0.5402593272171253,3.7819798140995378,0.6741994375304396,0.33369061988419146,-0.08797237030110479,0.21565533335432796,-0.042522752590208795,5.265010029151003,-6.352302601644032,5.3069785236126465
20,20,333333333,0.709261,-0.011767,0.102254,-0.697392,-0.11472528032619776,-0.13859653414882772,0.9833362895005096,0.912492584525349,-20.279554679757922,2.733123274333053,0.029496181357596792,0.13135588261440678,-0.18575744845583375,-1.2619287973150972,-1.5628685210069495,9.602139225014001,0.535972,-0.446505,-0.354895,-0.622428,0.9720018348623852,-0.019303567787971456,0.34636330275229354,-3.551536188897921,-1.7230559772969247,-2.1475031119298387,-0.19367681399118497,0.10897542465855779,-0.055836322081121395,9.184732219924292,-0.36135325167262417,3.427275576283618,-0.524908,-0.469778,0.406039,-0.582162,1.0372795107033639,0.08927900101936799,0.20432680937818554,-6.383322795552501,-8.250019292088725,-7.729544430991884,-0.20762149758818857,-0.11218905298573699,-0.036153083628957396,9.547484385225044,0.2003153672440293,2.245331972677965,0.768791,0.638297,0.022982,0.031771,-0.004284505606523954,0.8998379204892967,0.22873781855249742,6.291534956772544,-6.119074660438166,0.7597420363434716,0.10208911182200359,-0.20475222016060837,-0.029611121692002196,0.051227400578643875,9.642190859941847,1.8059986638654693,-0.201898,-0.130854,0.611338,-0.75391,0.3761051987767584,-0.902892864424057,0.2214400611620795,-27.53572138041272,-13.197567148822895,2.9853392957496414,-0.1785843724127876,0.14489886267051297,-0.047400547722276,4.357210707136711,-8.52439295310907,2.1413873154097174,0.107179,-0.03341,0.124174,-0.985889,0.04145412844036697,-0.2598196738022426,0.8920312945973495,-11.171588385240304,4.049551104425633,-9.803365170467899,-0.11391057243192339,0.07259293046440679,-0.18070759539987138,0.385134889022856,-2.4721719462133547,9.485575205838234,-0.078712,-0.019313,0.158091,-0.984093,0.01719439347604485,-0.20740112130479102,0.964865239551478,-12.99617248383441,0.5657958226916879,21.947549412942774,-0.11310716535012859,0.047056196822677,-0.19580003697826875,0.61703792122454,-3.022579209294736,9.312324045441617,-0.01457,0.749974,0.031171,-0.660572,-0.9930180428134556,0.03898837920489296,-0.12627339449541283,22.794037259469054,2.861924186678462,18.923535466021804,0.22156618118519217,0.018420775188173397,-0.079479243300961,-9.711066603017334,-0.6183792760427071,-1.2445450987096784,0.619499,-0.239749,0.724478,0.184048,-1.0413800203873598,-0.018093068297655453,-0.17208583078491335,4.818116690814119,4.238741768377831,-17.680961895721587,0.19534098079607298,-0.061632229577580196,0.11809966576479258,-9.67145157570204,-0.29794008285983553,-1.615659656572525,0.368213,-0.647648,-0.396864,-0.536162,1.0417206931702343,0.0263190621814475,-0.3577822629969419,-2.7785015317074144,11.153769397811736,8.050400796265144,-0.21008907147487138,0.11155770382783739,0.0746014481688938,9.680017352660318,-0.5040187817621224,-1.509744720085545,0.575191,-0.294669,0.715678,0.264819,-0.9920814475025485,0.07693394495412843,-0.141544750254842,-6.754828629915328,-10.76518942115401,14.319590399027588,0.19448022107297977,-0.09084164772868498,0.11454192158982299,-9.607642769464393,0.39307107033236477,-1.9428833078768104,-0.331721,0.420817,0.100102,-0.838364,-0.662234862385321,-0.44172110091743116,0.6285573904179408,-2.7529476140445794,1.3974440623240778,-0.844196015345755,0.10048229765841399,0.06387039289906939,-0.20681809050639377,-6.27039048042951,-4.385377349099182,6.138955019296591,0.61737,-0.476343,0.047158,-0.624282,0.5338440366972477,-0.639740876656473,0.5522764525993883,3.4654779280692716,1.264059487617622,-0.07987031664123675,-0.08848877912459899,0.21513892453083375,-0.043555805289005795,5.263228938914971,-6.347456187687091,5.314538651845607
21,21,350000000,0.709916,-0.013764,0.099659,-0.697064,-0.09150672782874616,-0.16171325178389398,0.9709254841997962,2.856481087624719,-22.41118686076264,3.059651921778109,0.030586586697692195,0.13135588261440678,-0.18518368699104118,-1.1998632723435,-1.5546880219914707,9.6114189005556,0.535883,-0.446153,-0.355152,-0.622611,0.961251478083588,-0.0020344546381243626,0.32980081549439344,1.326511887286882,1.0977298396911441,-2.657435549596271,-0.19419322281467918,0.10845901583506358,-0.055836322081121395,9.184111317960658,-0.35245873083708484,3.4298647411178926,-0.52609,-0.469919,0.406797,-0.58045,0.988522120285423,0.11106106014271153,0.1995380224260958,-10.367614007112733,-6.192069483537833,-9.263065969659532,-0.20658844488939157,-0.11224640562703538,-0.03339851148397399,9.550546031396305,0.2176713802313738,2.2306478145167756,0.76784,0.639543,0.021707,0.030565,-0.017751681957186544,0.9034096839959225,0.20344495412844035,10.256517490636867,-11.985245750105587,-0.7174004552833038,0.10208911182200359,-0.20475222016060837,-0.029094477816699396,0.05650818991603386,9.647756313298249,1.775867377842789,-0.201303,-0.130952,0.613863,-0.751998,0.3708064220183486,-0.9720108053007135,0.22465280326197756,-19.994221697782773,-8.203380527565075,1.0485127650894066,-0.17955983741847759,0.14587432767620298,-0.04579373355868639,4.356583400772593,-8.539853679117186,2.0801875423579745,0.105304,-0.03322,0.124465,-0.986061,0.02523384301732925,-0.2720538226299694,0.8774794087665646,-1.6581971548881156,3.3722576948014864,-12.507095709910741,-0.11488627248942199,0.07110082158341399,-0.18013359888327016,0.38553844496465584,-2.476598053909179,9.484404155603425,-0.075756,-0.018868,0.160214,-0.98399,0.012231192660550458,-0.2697911314984709,0.9477362895005096,-13.779233902439708,-1.0651285411482003,21.210152730609405,-0.11224640562703538,0.04900736188586559,-0.19482433692077017,0.6023948350606901,-3.0650292965839077,9.299398683451239,-0.013073,0.750381,0.027405,-0.660308,-0.9307767584097859,0.024257084607543323,-0.08653211009174311,9.082297785295758,4.4181348540332905,25.568814565508116,0.22219729529128318,0.0164696101249848,-0.0799956521244552,-9.714336691202933,-0.5475052219036182,-1.2521983396957395,0.619826,-0.240044,0.724674,0.181775,-0.9957640163098878,0.04580611620795107,-0.11631233435270133,11.544526614090957,3.708870399440845,-12.422813618246996,0.19528362815477457,-0.06019770838969439,0.11804231312349418,-9.66884999026565,-0.3346759364329337,-1.6240172053622746,0.370448,-0.645026,-0.392088,-0.541274,0.9856070336391437,6.585117227319062e-05,-0.12746534148827726,-15.385349193750432,50.74452278777697,8.903592248994455,-0.209687367933974,0.11253340388533599,0.07190422866520879,9.699806643327259,-0.5242764195132229,-1.3693010326465078,0.575061,-0.294064,0.715017,0.267548,-0.9595566768603466,0.08249459734964322,-0.1612427115188583,-11.779324718535568,-8.83569675027145,12.09181589999992,0.1955130387199682,-0.09130070391088078,0.11402527771452019,-9.610947452767773,0.43549787456895467,-1.9173238279911344,-0.331796,0.420818,0.100661,-0.838266,-0.6529939857288481,-0.45986126401630983,0.6094977573904179,-2.0842485713473957,-0.7128740887017703,-2.499872155935295,0.10145799771591259,0.0649032105460578,-0.20733449932988796,-6.265820759277473,-4.395010859826729,6.136731194586631,0.617558,-0.4759,0.047038,-0.624443,0.5343817533129459,-0.6477343527013252,0.5372569826707441,3.1788844389448334,1.8542060166023702,0.05225375091593108,-0.08797237030110479,0.21519627717213216,-0.044129566753798394,5.260585871820084,-6.342523973540216,5.323037284321284
22,22,366666666,0.710582,-0.015554,0.096913,-0.696735,-0.06226513761467889,-0.15365249745158002,0.9775520897043832,4.760992798639576,-22.815351289447918,3.0710537819012127,0.028922419892804196,0.13187229143790097,-0.18679050115463078,-1.1385012849408744,-1.5416421387145285,9.620979905411282,0.535884,-0.445553,-0.355123,-0.623055,0.9402345565749235,-0.008517329255861366,0.35011855249745155,0.6162734044427135,4.31717969053124,-2.791736856774936,-0.19465227899687498,0.1074259631362666,-0.056410083545913994,9.180378873670753,-0.34342024589198766,3.440756642160446,-0.527686,-0.469467,0.407491,-0.578878,0.9462717635066258,0.07325504587155963,0.22022945973496433,-13.930265577236193,-1.257756951871183,-8.971487747717456,-0.20653109224809318,-0.11322187063272537,-0.0339149203074682,9.550843407603839,0.23237110120432267,2.2278900050844888,0.767725,0.639786,0.02031,0.029303,0.05998093781855249,0.9200700305810398,0.19318766564729867,1.200690355476153,-12.903467912582244,-0.765586205853806,0.10203175918070519,-0.20429316397841257,-0.028520716351906797,0.06190419365918035,9.648632574751531,1.7709199045273185,-0.199616,-0.131179,0.61425,-0.752092,0.3419478083588175,-0.9541867482161059,0.22872721712538224,0.6690428173742623,-8.648396847043184,6.9637290420200255,-0.17955983741847759,0.14587432767620298,-0.04579373355868639,4.341372786336101,-8.550143297170742,2.0696936797281316,0.103225,-0.033207,0.12379,-0.986366,-0.015181753312945974,-0.21457584097859328,0.9413044852191641,4.66422022704198,1.9885646195605482,-14.076369814994553,-0.11540268131291619,0.07161746545871679,-0.18277346574565675,0.39192978512455756,-2.4628994887334406,9.487708740888328,-0.073303,-0.018517,0.160803,-0.984086,0.02911335372069317,-0.2980708460754332,0.930949745158002,-3.032436426509395,-0.4340155298115986,17.52259636114743,-0.11414021804892559,0.0479745442388772,-0.19580003697826875,0.588790131552229,-3.078118533761025,9.295946023568748,-0.010891,0.7506,0.024069,-0.660229,-0.931164118246687,0.002712945973496432,-0.13900101936799183,3.5507913437642507,2.684307270187907,26.407223707123052,0.22219729529128318,0.015494145119294799,-0.07942189065966258,-9.717892797636223,-0.4721714159856376,-1.2552743634664738,0.619838,-0.241181,0.724553,0.18071,-0.9618098878695208,0.08764617737003058,-0.06728297655453619,0.8978821607495131,3.058276823069795,-11.561772643724394,0.19580003697826875,-0.05973841715568999,0.12016553611057798,-9.666558526689052,-0.3641308247178505,-1.631304690297156,0.37119,-0.644856,-0.389253,-0.543011,0.9167643221202855,-0.06807471967380224,-0.04826687054026503,-11.966051663968704,17.685029896067014,9.92958777273522,-0.21014642411616977,0.11253340388533599,0.07081405837692199,9.705046001194725,-0.5492704243112942,-1.3215461080382942,0.574864,-0.293546,0.714524,0.269848,-0.9722005096839957,0.056979612640163095,-0.1863821610601427,-10.282071408299702,-6.6450499163682615,10.606136337225696,0.19402092983897537,-0.09233352155786918,0.11299246006753179,-9.613147600330809,0.47213246015914784,-1.8975205280360126,-0.331967,0.420611,0.101154,-0.838244,-0.6326712538226299,-0.46715188583078493,0.6112441386340469,-0.9304261635129438,-1.9136217399574365,-2.821645253680765,0.10099894153371679,0.06438680172256359,-0.20681809050639377,-6.25867385494366,-4.403130551867914,6.138203558098409,0.617803,-0.475467,0.046896,-0.624541,0.5323112130479103,-0.6346771661569827,0.5405327217125382,3.2941062515456423,1.4369208544085916,0.3199969285805648,-0.08802972294240319,0.21617197722963077,-0.044072214112499994,5.257691407216735,-6.337914877845827,5.331380315421118
23,23,383333333,0.711238,-0.017111,0.094086,-0.696416,-0.04078868501529052,-0.14807217125382263,0.9805510703363914,6.278929885279666,-21.862006814129746,3.2024903001042233,0.026856549547018795,0.1308394737909126,-0.18673314851333236,-1.0791231677751194,-1.5243369061760401,9.630575797180596,0.535922,-0.444795,-0.355177,-0.623534,0.9104338430173291,-0.0018543323139653413,0.3547493374108053,1.3858703148624354,4.863838722865558,-3.1281203782962423,-0.19522604046166758,0.10891807201725938,-0.056984080062515194,9.176113472544595,-0.3317837127113666,3.4532536986102005,-0.529403,-0.468803,0.407943,-0.577528,0.9292451580020387,0.005389908256880733,0.22305015290519875,-13.467831340786104,1.4861952247898425,-8.68661313197841,-0.20808055377038437,-0.11322187063272537,-0.035062678288862,9.549312389059482,0.24696108620809137,2.232877766035129,0.767144,0.640523,0.019781,0.028796,0.07673527013251784,0.9380614678899082,0.1654163098878695,5.688210398499787,-5.34065419997343,-0.40238825952037716,0.10254816800419939,-0.20475222016060837,-0.027946719835305597,0.06415003123821161,9.651920229643775,1.7528321808106495,-0.19689,-0.132337,0.614288,-0.752577,0.36429694189602446,-0.9193918450560653,0.1835018348623853,6.343043862554805,-17.06887108318333,8.601242420503919,-0.17864172505408596,0.14679267509240318,-0.043670510571602594,4.327010599648745,-8.559085862373458,2.0627962747315145,0.101163,-0.033355,0.123491,-0.986612,0.011099898063200815,-0.1707814475025484,0.954122120285423,1.9678808431563255,0.8590356222396432,-14.177382274276116,-0.11488627248942199,0.07058441275991978,-0.18116665158206718,0.4005565801518053,-2.456659883951466,9.488966046976914,-0.071449,-0.01826,0.160087,-0.984344,0.040548318042813454,-0.25411478083588174,0.9494588175331293,5.359389919874207,0.8080996742525131,13.501693146478337,-0.11316451799142699,0.048490953062371396,-0.19585738961956717,0.5770673005267728,-3.0661375044636157,9.300639447607052,-0.008716,0.751456,0.021176,-0.659385,-0.9393292558613658,-0.031859633027522934,-0.12259622833843016,1.5503092020649814,9.253039208244743,24.481970923924457,0.22225488298439017,0.014002036238301997,-0.07833148531956718,-9.718074323412557,-0.4024620370864834,-1.2779498242629859,0.6189,-0.242579,0.725171,0.179572,-0.9702708460754331,0.0693196738022426,-0.11433649337410806,-0.44003158666047226,11.016087639641798,-10.776533985497602,0.19482433692077017,-0.06019770838969439,0.12016553611057798,-9.66026610184318,-0.39066792856395344,-1.662148432352291,0.372782,-0.644631,-0.388918,-0.542428,1.024975127420999,-0.1467940876656473,-0.10607217125382262,7.4816255930387765,3.47493173168893,7.810102296987277,-0.21072018558096237,0.11350886889102599,0.0702974145016192,9.704975963092647,-0.575784105590481,-1.3107304145183074,0.575196,-0.292388,0.714363,0.270821,-0.9679380224260957,0.08238460754332314,-0.16473272171253822,0.6548907598345309,-6.5978954898289945,8.077788178872398,0.19453757371427816,-0.0933092216153678,0.11247605124403759,-9.615442238038726,0.4960740771904871,-1.8797023905077304,-0.332155,0.42036,0.101371,-0.838269,-0.6281480122324158,-0.4747681957186544,0.615316615698267,0.7500017538262476,-1.6842667345665678,-2.0340574684939354,0.10197440653940679,0.0649032105460578,-0.20790826079468058,-6.2529670386505485,-4.406666462302829,6.1414814095269605,0.61801,-0.475169,0.04684,-0.624567,0.5298630988786952,-0.640811111111111,0.5477390417940876,2.3703263984562155,1.0235318052217026,0.627789856124843,-0.08797237030110479,0.21513892453083375,-0.043555805289005795,5.254772125331505,-6.335571828744203,5.337040332774505
24,24,400000000,0.711879,-0.018246,0.091477,-0.69608,-0.01057196738022426,-0.13135800203873596,0.9705256880733943,7.193427822087973,-18.471872836120173,3.5373268355786767,0.025766144206923396,0.13032282991560978,-0.18724955733682658,-1.028478001725681,-1.5041526184355816,9.639287209146731,0.535814,-0.44438,-0.355104,-0.623964,0.9025795107033638,-0.01334862385321101,0.36702915392456675,-0.48684223852266045,3.2898663638616736,-2.6755410159224056,-0.19568533169567198,0.10788501931846238,-0.055262325564520196,9.173267162915065,-0.32437570529991555,3.4615097803697403,-0.530957,-0.468079,0.408207,-0.576501,0.9384793068297654,-0.045637920489296636,0.23023098878695208,-11.389312347390018,2.8970464995199814,-7.701125724353395,-0.20601468342459897,-0.11322187063272537,-0.035579087112356196,9.546867330059941,0.2589463805199678,2.24195694745679,0.765336,0.642687,0.019488,0.028889,0.04313588175331295,1.0189004077471966,0.16271478083588176,18.460299088658534,-1.8127811680144117,2.2320143867116347,0.10208911182200359,-0.20526862898410259,-0.027372958370512998,0.07164667385943577,9.661563378817691,1.6985758243934277,-0.194611,-0.133237,0.613072,-0.754001,0.3759813455657492,-0.8532604485219164,0.17334699286442404,16.00316958424,-11.152050524426343,7.462603394240434,-0.17955983741847759,0.14587432767620298,-0.04636773007528759,4.311913197842562,-8.560743070040044,2.0873865629136583,0.099225,-0.033263,0.123577,-0.986801,0.03212385321100917,-0.17517655453618755,0.9383217125382263,-0.478190575816185,2.6569198875806532,-12.993135807520218,-0.11534532867161779,0.07058441275991978,-0.18013359888327016,0.40342729902966235,-2.4573361128207423,9.48866932941731,-0.069841,-0.017852,0.159782,-0.984517,0.04207767584097859,-0.2225084607543323,0.973058511722732,2.4436077004534478,1.6507487035514148,11.872888726480431,-0.11276281445052959,0.049466418068061395,-0.19425057545597757,0.5637791037294687,-3.0619211445136263,9.302843222745311,-0.007259,0.752091,0.018471,-0.658761,-0.9909811416921508,-0.04984362895005097,-0.09175280326197757,4.563035880421876,6.980803184314924,20.288149046684886,0.22282864444918277,0.012051106226922,-0.07879054150176298,-9.718055634543399,-0.34584937076014716,-1.2945589583577128,0.618702,-0.244137,0.724826,0.179534,-0.9981145769622833,0.058708460754332316,-0.12230081549439346,-6.337887242398627,1.651665436023624,-9.690148710150048,0.19625909316046455,-0.05876295214999999,0.12016553611057798,-9.65857433621153,-0.41039417578427007,-1.6672187655968524,0.375651,-0.642429,-0.388181,-0.543588,0.9900042813455657,-0.11201620795107033,-0.10377502548419978,12.005127385596627,23.012677954090975,4.566931993428766,-0.21072018558096237,0.11402527771452019,0.06863324769673118,9.712620708345886,-0.5948495509751,-1.2438862438002196,0.575138,-0.292133,0.714041,0.272068,-0.9834962283384301,0.0930229357798165,-0.1468900101936799,-5.235688331905463,-4.059176795383831,5.053545048833374,0.1955130387199682,-0.09279257774006498,0.11299246006753179,-9.616776071246658,0.5150425081699123,-1.8677390637548397,-0.332315,0.420171,0.101401,-0.838296,-0.6171156982670745,-0.45751162079510704,0.6235912334352701,1.5458974270424743,-0.923550669971374,-1.2728257418831237,0.10048229765841399,0.06438680172256359,-0.20790826079468058,-6.249574811478558,-4.4073061591794405,6.144474517401121,0.618205,-0.474972,0.046782,-0.624528,0.5390487257900102,-0.6332829765545361,0.5532297655453619,2.019045974261508,0.44518820681664967,0.9348379385354512,-0.08848877912459899,0.21519627717213216,-0.04516261945259539,5.252520303436778,-6.334255450767538,5.340818134556371
25,25,416666666,0.712478,-0.018849,0.089485,-0.69571,-0.0028495412844036696,-0.11579092762487257,0.9722155963302752,6.7672045182901535,-12.788876353556079,3.8863727243723742,0.026340140723524596,0.13032282991560978,-0.18776596616032076,-0.9936087578829498,-1.4849415731278233,9.64592090785815,0.535605,-0.444296,-0.35512,-0.624194,0.9060512742099898,-0.02655188583078491,0.3701643221202854,-0.8258613659015686,1.2095139055211679,-1.4940447465831346,-0.19413587017338077,0.10794260701156938,-0.056410083545913994,9.172956997566434,-0.31987242438136043,3.46275057619191,-0.532091,-0.467564,0.408428,-0.575716,0.9613153924566769,-0.04720978593272171,0.2467743119266055,-8.404316826317455,1.755198909603764,-5.6872936660275775,-0.20658844488939157,-0.11270546180923117,-0.036669492452451595,9.545233864656044,0.26777516942488555,2.2478671952904357,0.765123,0.642955,0.018844,0.028982,0.017378389398572884,1.0396211009174312,0.18459918450560653,1.513869086294661,-3.2552024172562595,3.0808513601979497,0.10203175918070519,-0.20429316397841257,-0.027946719835305597,0.0827207957158315,9.662577199225593,1.6922940462466545,-0.193448,-0.133176,0.613579,-0.753899,0.37046146788990825,-0.8101305810397553,0.22389378185524972,-1.5935102198178455,-5.455646829456185,5.329309635629839,-0.17818266887189016,0.14679267509240318,-0.044244272036395194,4.298677129068411,-8.57028253578373,2.0755076961708943,0.097702,-0.032773,0.123626,-0.986963,0.04558909276248725,-0.18277471967380224,0.95180499490316,0.3328884789710083,5.2274950354350915,-9.910393686598336,-0.11385321979062499,0.07110082158341399,-0.18065024275857297,0.39764342843174416,-2.4567455321903147,9.489066397380089,-0.068319,-0.017332,0.160469,-0.984521,0.04849296636085627,-0.22932915392456674,0.9801512742099898,-4.168210663797225,2.1484771401815608,11.489408074199373,-0.11236111090963218,0.050901174307755793,-0.19591474226086558,0.5498859269309004,-3.0764361969484946,9.298885190896186,-0.007307,0.752399,0.01527,-0.65849,-0.9875284403669724,-0.06547288481141691,-0.12134964322120284,14.50740596427147,4.202588131505075,15.80693153940769,0.22242694090828538,0.010099941163733398,-0.0777001361616676,-9.718486216819706,-0.30514835595617895,-1.301541445495571,0.618665,-0.24543,0.724336,0.179877,-0.995860856269113,0.044070234454638126,-0.1428060142711519,-7.410406939104016,-0.53107458030676,-6.907636473876718,0.19729191080745295,-0.0596810645143916,0.11964912728708377,-9.658302612713674,-0.42276293923437547,-1.6657016955199735,0.378247,-0.640574,-0.38831,-0.543884,0.9832385321100916,-0.12228593272171252,-0.090093374108053,15.480460187742148,14.93397304274637,2.8710915114005555,-0.21072018558096237,0.11454192158982299,0.0670264335331416,9.717293369309727,-0.6101739221016697,-1.1991652761634997,0.575192,-0.292018,0.713846,0.272588,-0.9773719673802241,0.085482874617737,-0.15810061162079508,-2.294524082160408,-2.386426512499392,1.8006917585371511,0.19499662989647398,-0.09181711273437498,0.11299246006753179,-9.617700031101032,0.5222729797235267,-1.860961323190239,-0.332329,0.420168,0.101612,-0.838267,-0.6299569826707442,-0.44900326197757384,0.6263562691131499,-0.30280819472664006,-0.19526401658058457,-0.9646890396617671,0.10048229765841399,0.0649032105460578,-0.20899866613477597,-6.247876521666927,-4.410810184526708,6.143687206074109,0.618342,-0.474868,0.04685,-0.624467,0.5330647298674821,-0.6423196738022425,0.5494168195718654,0.44937079872110464,0.40399254134674345,1.3017028147577172,-0.08745572642580199,0.21519627717213216,-0.043555805289005795,5.249722709993213,-6.3350425022772985,5.342634926936495
26,26,433333333,0.712997,-0.018859,0.088278,-0.695332,-0.01266360856269113,-0.1067861365953109,0.9780010193679918,5.958818365140075,-6.3279750725428645,3.918229177781648,0.025249735383429197,0.1298064210921156,-0.18776596616032076,-0.9776387801696744,-1.4681436117134747,9.65012314692892,0.53554,-0.444438,-0.354978,-0.624229,0.9364636085626911,-0.03627359836901121,0.3569716615698267,-1.711367638276256,0.12450372888192789,0.5458568914211354,-0.19470963163817337,0.10943448084075358,-0.055319913257627196,9.173061469452465,-0.3222932971257609,3.4622493134195844,-0.532674,-0.467282,0.408968,-0.575023,0.9774173292558613,-0.02112150866462793,0.23977512742099896,-6.635481521189576,-1.7529070784232406,-3.1307559841538444,-0.20601468342459897,-0.11316451799142699,-0.037185901275945794,9.546000259363334,0.2696368991902111,2.2443874422278833,0.76523,0.642859,0.018033,0.028824,0.012181651376146787,0.9819974515800204,0.15457777777777776,-1.5934529240383324,-4.950469941489339,2.64328349205654,0.10208911182200359,-0.20475222016060837,-0.027946719835305597,0.09280990078668817,9.66195633470916,1.6953129824576838,-0.192935,-0.132334,0.615933,-0.752257,0.3905774719673802,-0.9147165137614678,0.18621936799184505,-19.354514319519208,-2.3362354096459317,4.842467397107178,-0.1777236126896944,0.1477681400980932,-0.044244272036395194,4.284697125357378,-8.589791748906588,2.023103619286593,0.096805,-0.031787,0.123576,-0.98709,0.043244954128440365,-0.1924218144750255,0.9570393476044852,1.5200570304820742,7.547573035258335,-5.5172970882122625,-0.11482868479631499,0.0696089477542298,-0.18168306040556137,0.3809000980949242,-2.453635208407866,9.490557906642401,-0.066936,-0.016517,0.160911,-0.984558,0.06130468909276249,-0.27214128440366975,0.9828766564729867,-2.6014002772324765,4.104669644317218,10.722561361196279,-0.11184470208613798,0.050442118125559994,-0.19643115108435977,0.530381220338711,-3.0866306310783305,9.296639559991613,-0.007835,0.752571,0.012133,-0.658353,-1.0208145769622834,0.0025919469928644243,-0.12267145769622832,16.862147910700127,2.614922081197564,13.067677616666737,0.22248429354958377,0.0086078322827406,-0.07764278352036919,-9.719004902042583,-0.27240771880491665,-1.3049282542759728,0.619199,-0.245053,0.724212,0.179049,-1.0119108053007135,0.04622313965341488,-0.15008593272171253,7.125876098042048,-1.6988198625628907,-3.8668348635584127,0.19671814934266038,-0.05870559950870159,0.11964912728708377,-9.659080418113,-0.4329572767630912,-1.6585576483571138,0.381023,-0.638489,-0.38887,-0.543997,1.0037362895005095,-0.12933995922528033,-0.1523507645259939,18.950178003495388,14.339070964062033,1.4930707183314122,-0.21072018558096237,0.11454192158982299,0.06593626324485478,9.72180496684684,-0.6226387717625975,-1.155391339109868,0.575142,-0.292196,0.713767,0.272708,-0.9805781855249744,0.11264546381243627,-0.17906921508664628,-1.8732282154007136,-0.13928603999630312,-0.620169517449603,0.19448022107297977,-0.09233352155786918,0.11241846355093059,-9.617756602866459,0.5218092891440814,-1.8607990202548927,-0.332168,0.420266,0.102286,-0.8382,-0.627889500509684,-0.4417772680937818,0.6320002038735983,-3.669622790474384,-0.6672666482093568,-1.320954196674113,0.10094135384060979,0.06536226672825358,-0.20630168168289956,-6.244861263521111,-4.421070176082757,6.139376702689377,0.618458,-0.474734,0.046937,-0.624447,0.5229135575942915,-0.6603642201834862,0.5400334352701325,0.9260143884904365,0.8715833979530083,0.8674008060485533,-0.08848877912459899,0.21565533335432796,-0.043039161413702995,5.246735484941398,-6.335548578004253,5.344968752650019
27,27,450000000,0.713436,-0.018569,0.087637,-0.694971,-0.0393413863404689,-0.10968399592252803,0.9888028542303771,4.720312795185287,-1.8195420699969553,3.7531027412249447,0.026340140723524596,0.1298064210921156,-0.18828237498381498,-0.9735138136896011,-1.4548802323683956,9.652548594232465,0.535511,-0.444778,-0.354668,-0.624189,0.9518050968399592,-0.03514566768603466,0.35225851172273187,-2.3360062265278794,0.012719663051904275,1.7633349102946216,-0.19367681399118497,0.10845901583506358,-0.056984080062515194,9.173405107063836,-0.3296872969378672,3.460642285462772,-0.532919,-0.467225,0.40947,-0.574484,0.9884244648318042,0.006113863404689093,0.22623302752293575,-4.027148454636017,-3.072658063727579,-1.7914671380355451,-0.20503898336710039,-0.11322187063272537,-0.036095495935850395,9.547639746202039,0.2699540214283579,2.2373645440691523,0.764353,0.643922,0.017319,0.028784,0.014332721712538226,0.9996013251783894,0.13832201834862384,8.76556671614744,-4.166720973529886,3.1747018470403785,0.10059723799281939,-0.20526862898410259,-0.027372958370512998,0.10392368293212732,9.666429874488763,1.6689617580151426,-0.192296,-0.131432,0.616237,-0.75233,0.3965797145769623,-0.9467972477064219,0.18672456676860347,-1.4283837832611423,1.6165431231821046,6.175797482156117,-0.17778096533099277,0.14874360510378318,-0.044244272036395194,4.264995956558947,-8.60022050232378,2.0204249062871997,0.096439,-0.030658,0.123392,-0.987185,0.0257480122324159,-0.1897065239551478,0.9772303771661569,2.2657043050653276,8.203896189580693,-1.4851066049790937,-0.11477133215501659,0.069092303878927,-0.18065024275857297,0.3603274391627419,-2.447935073118905,9.492832981485599,-0.065811,-0.015525,0.159982,-0.984801,0.05517441386340469,-0.2634769622833843,0.9891763506625891,6.436321391602103,6.2128105557215685,9.036346570126264,-0.11132829326264379,0.049982826891555594,-0.19534098079607298,0.506541848917625,-3.071095398828843,9.303111759330179,-0.006553,0.752479,0.010542,-0.658499,-1.016807237512742,0.0377190621814475,-0.13532548419979612,0.5538783005529668,-0.26619619161778046,13.179003316260657,0.22242694090828538,0.0095832972884306,-0.07821678003697038,-9.720488825871227,-0.23294620878479402,-1.3015118324185206,0.619418,-0.244526,0.724407,0.178219,-1.0059565749235475,0.060371457696228335,-0.17076819571865443,7.50660655290648,0.9363276288027913,-2.1252150536992493,0.19522604046166758,-0.05824654332650579,0.12119858880937498,-9.658736454351372,-0.43871760170960317,-1.659047006969376,0.383549,-0.636099,-0.38828,-0.545442,1.0121365953109072,-0.08946330275229358,-0.07370346585117227,10.86814993693902,23.68378341952771,1.2967180819400792,-0.21129418209756357,0.11551738659551297,0.06484585790475939,9.729155072609565,-0.6315856963372243,-1.0866191058958619,0.574927,-0.292834,0.713645,0.272798,-0.99514373088685,0.13561692150866464,-0.16075504587155964,-3.720157668004922,1.4483227145316948,-2.934517939321537,0.19660344406006358,-0.0933092216153678,0.11299246006753179,-9.617291278450555,0.5164520816553003,-1.8646945360548361,-0.33192,0.420483,0.103021,-0.838099,-0.6287043832823649,-0.46838358817533127,0.6217494393476045,-4.691149243413128,-0.10399183981624442,-0.9670954624013166,0.10094135384060979,0.06536226672825358,-0.20790826079468058,-6.24331197847073,-4.432324610366548,6.132834099160263,0.618481,-0.47454,0.046767,-0.624585,0.5234716615698267,-0.6590076452599387,0.5397439347604486,2.249833374140204,0.6560939712043057,-0.7375685696719088,-0.08751307906710039,0.21617197722963077,-0.043555805289005795,5.247681395263428,-6.3314479336655145,5.348897740384347
28,28,466666666,0.713822,-0.018097,0.087344,-0.694624,-0.06420448521916412,-0.11014831804281344,0.9903289500509684,3.946418701302084,0.5478622437040931,3.4860471129144677,0.026340140723524596,0.1298064210921156,-0.1887990188591178,-0.9766329251370802,-1.4438203922815211,9.653894074640046,0.535422,-0.445114,-0.354378,-0.62419,0.958111111111111,-0.023986136595310906,0.34370224260958204,-3.1756185795125877,-0.5557117654973854,1.3276578028771437,-0.19367681399118497,0.10897542465855779,-0.05750048888600939,9.173869212744904,-0.33598509020675676,3.4588058179970136,-0.532865,-0.467372,0.409696,-0.574253,0.9866440366972478,0.011019571865443424,0.21483588175331295,-0.6127783618924154,-2.4695053927933612,-0.8096466602993663,-0.20704750107158737,-0.11419757069022399,-0.035579087112356196,9.54911112445051,0.27030547107873854,2.231033770519949,0.763688,0.644704,0.016835,0.029223,0.032880122324159024,1.0185100917431191,0.13191610601427115,6.318406677364179,-0.6410251811923651,4.172106776804116,0.10105629417501519,-0.20475222016060837,-0.026282553030417596,0.117396220021574,9.669612477803806,1.64951891672259,-0.191428,-0.130455,0.615969,-0.75294,0.38195168195718654,-0.9175212028542303,0.23474617737003056,3.9269954320471494,2.2991650403009674,7.866194865130585,-0.1787564303366828,0.1501783613434776,-0.04539203001778899,4.2406389299418406,-8.60955260796309,2.0319166706776395,0.096678,-0.029638,0.123712,-0.987153,0.023396024464831803,-0.18225219164118248,1.0033999999999998,-1.1428789139474531,7.524597427673588,2.792252518790554,-0.11436962861411919,0.07110082158341399,-0.1822570569221626,0.33936711815416565,-2.4522630026418524,9.492488405312368,-0.065114,-0.014374,0.15898,-0.985027,0.05717420998980632,-0.23952762487257898,0.984405504587156,6.791555224583213,7.994365523901351,6.3236778890793826,-0.11127094062134539,0.0480318968801756,-0.19585738961956717,0.4808983558390887,-3.0541229030088073,9.310057468386987,-0.004263,0.752114,0.009996,-0.658944,-0.9987609582059124,0.042326809378185525,-0.12486146788990825,-9.429682096483576,-3.002470733824053,13.047738685396185,0.22351734624838077,0.008148776100544798,-0.079766006507453,-9.722848340107825,-0.192139813450973,-1.2905047258145037,0.619564,-0.243906,0.724701,0.177363,-1.0063561671763506,0.07786391437308868,-0.16793649337410804,8.121275675522828,1.06140431547985,-1.5511113429781647,0.19580003697826875,-0.059222008332195784,0.1212559414506734,-9.658123765024001,-0.44302468668497363,-1.6614675640728747,0.385725,-0.633956,-0.387568,-0.546907,0.9706541284403669,-0.06539357798165138,0.03340733944954129,8.224522670205403,22.225262056242688,1.1140018410728596,-0.21175323827975936,0.11557473923681139,0.06323904374116979,9.735631140641507,-0.6390041564610922,-1.022379568162803,0.574839,-0.293459,0.713545,0.272571,-0.9869664627930682,0.07493109072375127,-0.18320295616717633,-1.708617440859628,1.7021430177746495,-4.366683244030543,0.19602944754346235,-0.09279257774006498,0.11190205472743639,-9.616981645346536,0.5061961877667467,-1.8690985668386326,-0.331819,0.420748,0.103492,-0.837947,-0.6397397553516819,-0.46288450560652394,0.6222350662589194,-2.927928924677533,1.023073438985598,-1.1329094483121767,0.09944948001142559,0.06536226672825358,-0.20739185197118637,-6.243562544657855,-4.440659967635441,6.126545992872785,0.618504,-0.474268,0.046493,-0.624789,0.5269425076452598,-0.6516845056065239,0.5447476044852192,2.9689527028089,0.6887525655267627,-1.6988198625628907,-0.08751307906710039,0.21668838605312496,-0.04458862293599419,5.249551963066987,-6.325191673949541,5.354461175025824
29,29,483333333,0.714131,-0.017627,0.087253,-0.694329,-0.07486136595310906,-0.11107074413863405,0.9838729867482161,2.9819015489788563,1.6417532661678609,2.907417035611849,0.026340140723524596,0.13032282991560978,-0.188339962676922,-0.9823960171204805,-1.4356013160079268,9.654535044579937,0.535224,-0.445482,-0.354097,-0.624257,0.9490095820591233,-0.021122528032619776,0.34838909276248725,-3.8266132263402293,-0.948588925618591,0.5683168369902636,-0.19367681399118497,0.10845901583506358,-0.056984080062515194,9.174631188885163,-0.3410960458482076,3.4562835583097544,-0.532565,-0.467701,0.40962,-0.574318,0.9815395514780835,0.0020801223241590215,0.2139013251783894,2.756614543933417,-1.637627970042919,-0.30028718042806446,-0.20704750107158737,-0.11322187063272537,-0.035579087112356196,9.550204975624746,0.2713260003724371,2.226222613548399,0.763373,0.645058,0.016428,0.029859,0.000564729867482161,1.0206807339449542,0.17131753312945974,2.29922233608048,0.3664065099861614,5.046325780614725,0.10065459063411779,-0.20676073786509536,-0.026225200389119196,0.13184832018996498,9.670905612328104,1.6408231647267288,-0.190207,-0.130232,0.616333,-0.752991,0.3812571865443425,-0.8918423037716615,0.22156085626911315,-0.4139047112025067,-4.493478804092994,6.336512143690313,-0.17778096533099277,0.14966195251998338,-0.04160464022581719,4.224071876503684,-8.619493188996202,2.0242662737344497,0.097466,-0.028809,0.124549,-0.986994,0.0357190621814475,-0.21302844036697244,1.019229255861366,-4.519090017535342,5.907653234034893,6.1905797932704925,-0.11385321979062499,0.07064176540121819,-0.18277346574565675,0.3197084989213743,-2.4669622093177965,9.48936161886116,-0.064715,-0.01321,0.15872,-0.985112,0.05618470948012232,-0.21649286442405707,0.9836422018348624,1.0388870741312086,8.272135462980774,4.363990342393428,-0.11132829326264379,0.049466418068061395,-0.19591474226086558,0.4568495231875152,-3.050950344698317,9.312308548762147,-0.000618,0.75155,0.011248,-0.65958,-0.9889863404689091,-0.02514322120285423,-0.16366921508664628,-24.699866773412708,-4.669204959859617,9.555102557837714,0.22254164619088215,0.007115723401747799,-0.0792495976839588,-9.72564104179031,-0.1546725654636073,-1.2743950422599863,0.619413,-0.244263,0.724698,0.177414,-0.9835019367991844,0.102118246687054,-0.1290382262996942,-1.139441167176668,1.1015113611390075,-2.9870008733555204,0.19625909316046455,-0.05876295214999999,0.12016553611057798,-9.657417975469778,-0.44592554323222866,-1.6647908147771073,0.386191,-0.633378,-0.387205,-0.547504,0.9686633027522935,-0.10063649337410804,-0.014884199796126402,0.28859884140739567,7.053626120076052,-0.3573537768230945,-0.21135153473886198,0.11700949547650578,0.0642720964399668,9.737647565346242,-0.639780976941697,-1.0024969798707601,0.574601,-0.294475,0.713328,0.272546,-0.9837226299694188,0.07885759429153924,-0.17027329255861365,-4.819205310624867,2.5317286093445683,-5.471231281483744,0.19602944754346235,-0.09279257774006498,0.11241846355093059,-9.616487334551985,0.49460183178371253,-1.8747374142523054,-0.331796,0.420895,0.103869,-0.837837,-0.6310931702344545,-0.4615667686034658,0.6141730886850153,-1.7408176689459802,0.5144015084684531,-1.3195790979657989,0.10094135384060979,0.0649032105460578,-0.20899866613477597,-6.242649076392032,-4.4473907464480265,6.1225932461196715,0.618533,-0.473938,0.046166,-0.625035,0.5318122324159021,-0.6430240570846075,0.5466159021406727,3.265687544907153,0.7593409658868799,-2.117021757228879,-0.08802972294240319,0.21617197722963077,-0.0456790282760896,5.251735420709105,-6.317670329254249,5.361195452670039
30,30,500000000,0.714393,-0.017222,0.087373,-0.694055,-0.07385270132517839,-0.10903547400611621,0.9883896024464831,1.9135071483984105,2.4069956973445885,2.664998592491998,0.025823496848221796,0.1298064210921156,-0.1887990188591178,-0.9901356061817596,-1.4311793101515782,9.654400927223044,0.535006,-0.445779,-0.353934,-0.624324,0.9465056065239552,-0.04933282364933741,0.34879918450560654,-3.1503511407473184,-1.0254225659456344,0.09717364205418762,-0.19522604046166758,0.10943448084075358,-0.056410083545913994,9.175632605828012,-0.34383947637733364,3.453352095768752,-0.531962,-0.468253,0.4092,-0.574727,0.9745624872579001,-0.007965341488277268,0.22161376146788989,6.922819855447685,-1.0576227940319867,0.14702097023056926,-0.20704750107158737,-0.11368116186672979,-0.036095495935850395,9.550945212211422,0.2730027081716763,2.222839417201931,0.763895,0.644431,0.016004,0.030288,-0.00286289500509684,0.9952749235474007,0.19445096839959225,-6.553949626942461,-0.5847607257105182,3.44296068672063,0.10008059411751659,-0.20578503780759677,-0.027946719835305597,0.1430915599856788,9.66799363302921,1.6569622558065804,-0.189403,-0.12973,0.616857,-0.75285,0.4084747196738022,-0.8849275229357798,0.1967886850152905,-2.8913742173481864,-1.310526364802732,5.168136607859539,-0.1763462090912984,0.14966195251998338,-0.042695045565912595,4.208529251626008,-8.629463795285403,2.014134092871342,0.09858,-0.028053,0.125342,-0.986805,0.04657859327217125,-0.231141997961264,1.0234555555555556,-4.521152665597813,5.010114847962458,8.499026749852579,-0.11287775478493499,0.07213387428221099,-0.18283081838695517,0.3007084946486062,-2.4810198957634877,9.486317234737193,-0.064506,-0.012118,0.159288,-0.985048,0.05465423037716616,-0.22845249745158,0.9797349643221203,-4.302569266755404,7.708574175690095,3.0689338380592286,-0.11086923708044798,0.050442118125559994,-0.19591474226086558,0.43579632411655816,-3.063165174425429,9.309307207202568,0.00323,0.751231,0.013472,-0.659894,-0.981172375127421,-0.1082112130479103,-0.15768073394495413,-30.025051112917605,-2.144237252497593,5.1237323787369,0.22248429354958377,0.0086078322827406,-0.07821678003697038,-9.727131537276083,-0.12681613839417594,-1.26606860934619,0.6188,-0.245838,0.72446,0.17835,-0.9791030581039755,0.09251957186544342,-0.14865290519877675,-12.056120629363269,2.792538997688119,-5.071077557364378,0.19775120204145738,-0.05870559950870159,0.11964912728708377,-9.655800008763599,-0.4496334158377955,-1.6731574887388616,0.386539,-0.632405,-0.386539,-0.548852,1.0039300713557593,-0.11741814475025483,0.07275902140672783,-2.2031373138370416,12.29722126955432,-2.5490892305370325,-0.21226964710325358,0.11505833041331719,0.061632229577580196,9.741515330472437,-0.6336575748211191,-0.9682237055775358,0.574471,-0.295433,0.713103,0.272372,-0.978903363914373,0.04435728848114169,-0.18663832823649334,-3.6141604759057198,2.005867944973499,-6.012332623205293,0.19505398253777237,-0.09279257774006498,0.11190205472743639,-9.616246206942566,0.48091758819944175,-1.8795284410785564,-0.331658,0.421006,0.104014,-0.837817,-0.6164159021406728,-0.49337624872579,0.6039269113149847,-0.8225955064693229,0.45378257374361197,0.23743371030221316,0.09990853619362139,0.06587867555174778,-0.20790826079468058,-6.243655442393908,-4.44932275106365,6.1201628878267895,0.618512,-0.473722,0.045878,-0.62524,0.5286597349643221,-0.6415332313965341,0.5481643221202854,2.1451539849698023,0.27118092443541864,-1.9262268114503147,-0.08802972294240319,0.21668838605312496,-0.0461954370995838,5.254510485803172,-6.311512104561838,5.365727770634096
31,31,516666666,0.71464,-0.016876,0.087781,-0.693758,-0.08277390417940876,-0.10172772680937818,0.9973009174311925,0.053686145403758136,3.7717811653462094,2.715877244699615,0.026340140723524596,0.1298064210921156,-0.1887990188591178,-1.0010891778163982,-1.4314551404935647,9.653230373238458,0.534987,-0.445853,-0.354017,-0.62424,0.9526316004077472,-0.06718318042813455,0.34641111111111106,0.035179608621032546,-0.7318389917206005,0.2550808103922425,-0.19522604046166758,0.10891807201725938,-0.055319913257627196,9.1765478128922,-0.344016958657526,3.4509017038825394,-0.531084,-0.469112,0.408505,-0.575332,0.9684495412844035,0.003493374108053007,0.2248848114169215,10.768684463704309,-1.6084644182707601,0.34646757871560885,-0.20607203606589736,-0.11270546180923117,-0.035579087112356196,9.551915458925002,0.27687519148578354,2.2181864650856804,0.764032,0.644267,0.01581,0.030434,0.013227828746177369,0.9827885830784914,0.21665158002038734,-1.8946568369386063,-0.10089786772253798,1.1991433694292999,0.09962153793532078,-0.20676073786509536,-0.026225200389119196,0.14770461938793397,9.667190911917933,1.6612354492794694,-0.189048,-0.128725,0.617805,-0.752335,0.3875136595310907,-0.9185702344546381,0.19484699286442403,-7.692015695410816,2.1356428855706304,4.910649374727747,-0.17686261791479257,0.1506374175256734,-0.042695045565912595,4.191598568627151,-8.641845098694095,1.9962752139070543,0.099566,-0.027283,0.126168,-0.986622,0.04172456676860346,-0.24477716615698264,1.0271577981651376,-4.5765003886074505,5.107517673134698,7.4205482920778305,-0.11236111090963218,0.07213387428221099,-0.18231440956346096,0.2816642896506246,-2.4955992537771317,9.483077010785195,-0.06444,-0.011063,0.160457,-0.984875,0.048780632008154946,-0.26162140672782874,0.9715193679918449,-8.321295241802998,7.324807044511471,2.042021581846254,-0.11092658972174639,0.050901174307755793,-0.19648873877746675,0.4166408768605611,-3.0865628672539605,9.302453442303158,0.003218,0.751653,0.013385,-0.659415,-0.9879093781855248,-0.12870244648318044,-0.1738998980632008,0.3742560317794537,5.153927254540294,0.07053110458060434,0.22300070237307795,0.007632367277050599,-0.0792495976839588,-9.725523956382307,-0.12571419129186087,-1.2784677219005816,0.618223,-0.247451,0.724176,0.17927,-0.9862913353720693,0.01972650356778797,-0.16424689092762487,-12.331942511939248,2.859173989261834,-5.351425806521889,0.19476698427947178,-0.05876295214999999,0.11964912728708377,-9.654269365519927,-0.4543376208022369,-1.6807023366162268,0.387491,-0.631359,-0.38761,-0.54863,0.9605130479102955,-0.1354862385321101,0.0634316004077472,11.23192084106758,2.6813851854327395,-3.8294207195363703,-0.21272870328544938,0.11505833041331719,0.06214863840107439,9.742859353277872,-0.6276724596588286,-0.9585504189304382,0.574279,-0.296409,0.712941,0.272139,-0.9806258919469928,0.07270387359836901,-0.16980479102956167,-3.2111992585902116,2.652622704117172,-6.205132921266816,0.19505398253777237,-0.0933092216153678,0.11247605124403759,-9.615603081993147,0.46690903838854797,-1.8863386014804004,-0.331453,0.421099,0.103929,-0.837862,-0.6268856269113149,-0.46783088685015284,0.6166617737003057,0.6037256287293484,0.6746578037665444,1.3923447379474134,0.10042494501711559,0.06536226672825358,-0.20572768516629839,-6.246526405515832,-4.446928259642337,6.118973518392433,0.618493,-0.473516,0.045555,-0.625439,0.533143119266055,-0.6425410805300713,0.5530973496432212,2.1963191160749846,0.009167324722093173,-2.10607826334188,-0.08791478260799779,0.21416345952514376,-0.04516261945259539,5.2577651064400035,-6.305046759246829,5.370138866846274
